time,ax,ay,az,atotal
0.000,0.14,-0.27,-0.09,0.32
0.010,0.07,-0.22,-0.10,0.25
0.020,0.07,-0.15,-0.11,0.20
0.030,-0.01,-0.24,-0.12,0.27
0.040,0.02,-0.24,0.08,0.25
0.050,0.17,-0.14,0.18,0.28
0.060,0.20,-0.11,0.02,0.23
0.070,0.21,-0.22,-0.01,0.30
0.080,0.20,-0.23,0.00,0.30
0.090,0.22,-0.19,0.02,0.30
0.100,0.19,-0.14,0.04,0.24
0.110,0.08,-0.07,0.03,0.11
0.120,0.06,-0.01,-0.08,0.10
0.130,0.08,0.00,-0.19,0.21
0.140,0.02,-0.03,-0.21,0.21
0.150,0.03,-0.08,-0.08,0.12
0.160,0.08,-0.16,0.05,0.18
0.170,0.19,-0.16,0.12,0.28
0.180,0.27,-0.13,0.23,0.38
0.190,0.24,-0.13,0.36,0.46
0.200,0.19,-0.20,0.35,0.44
0.210,0.04,-0.20,0.29,0.35
0.220,-0.03,-0.15,0.11,0.19
0.230,-0.12,-0.12,-0.10,0.20
0.240,-0.09,-0.17,-0.17,0.25
0.250,-0.04,-0.23,-0.05,0.24
0.260,-0.05,-0.21,0.07,0.23
0.270,-0.07,-0.14,0.08,0.17
0.280,-0.08,-0.09,0.13,0.18
0.290,-0.03,-0.10,0.22,0.24
0.300,-0.02,-0.05,0.36,0.36
0.310,-0.02,-0.00,0.22,0.22
0.320,0.05,0.03,-0.03,0.07
0.330,0.16,0.06,-0.15,0.22
0.340,0.20,-0.00,-0.32,0.38
0.350,0.12,-0.01,-0.37,0.39
0.360,0.13,-0.02,-0.14,0.19
0.370,0.09,-0.04,0.17,0.20
0.380,0.01,-0.10,0.34,0.36
0.390,0.06,-0.14,0.18,0.23
0.400,0.15,0.02,0.16,0.21
0.410,0.37,0.07,0.13,0.40
0.420,0.58,0.05,0.05,0.59
0.430,0.65,0.07,-0.04,0.65
0.440,0.74,0.05,-0.04,0.74
0.451,0.79,-0.02,0.04,0.79
0.461,0.63,-0.08,0.25,0.69
0.470,0.34,-0.05,0.34,0.49
0.481,0.13,-0.07,0.22,0.26
0.490,0.01,-0.15,0.42,0.45
0.500,-0.12,-0.19,0.40,0.46
0.511,-0.16,-0.21,0.06,0.27
0.521,-0.16,-0.17,-0.10,0.25
0.531,-0.20,-0.15,-0.09,0.26
0.540,-0.14,-0.13,-0.07,0.21
0.551,-0.14,-0.17,-0.21,0.30
0.561,-0.24,-0.16,-0.25,0.38
0.571,-0.41,-0.10,-0.11,0.43
0.580,-0.59,-0.06,0.06,0.59
0.591,-0.50,-0.18,0.20,0.57
0.601,-0.25,-0.14,0.28,0.40
0.610,0.03,-0.09,0.16,0.19
0.621,0.16,-0.13,0.02,0.21
0.631,0.14,-0.05,-0.20,0.25
0.641,0.10,-0.03,-0.57,0.58
0.651,0.13,0.01,-0.66,0.67
0.661,0.18,-0.01,-0.60,0.62
0.671,0.13,-0.06,-0.55,0.57
0.681,-0.09,-0.10,-0.33,0.35
0.691,-0.39,-0.10,-0.01,0.40
0.701,-0.50,-0.13,-0.08,0.52
0.711,-0.62,-0.00,-0.08,0.63
0.721,-0.76,0.15,0.52,0.94
0.731,-0.48,-0.02,0.06,0.48
0.741,-0.17,-0.10,-0.13,0.24
0.751,-0.07,-0.15,-0.10,0.19
0.761,-0.12,-0.15,0.15,0.25
0.771,-0.28,-0.11,0.28,0.41
0.781,-0.29,-0.11,0.20,0.37
0.791,-0.19,-0.10,0.13,0.25
0.801,-0.04,-0.05,0.15,0.16
0.811,0.12,-0.01,0.14,0.18
0.821,0.19,-0.02,0.19,0.27
0.831,0.26,-0.06,0.15,0.30
0.841,0.36,-0.12,0.09,0.39
0.851,0.38,-0.15,0.05,0.41
0.861,0.43,-0.09,0.07,0.44
0.871,0.42,-0.06,0.16,0.46
0.881,0.43,-0.02,0.14,0.45
0.891,0.36,0.03,0.14,0.39
0.901,0.30,0.03,0.16,0.34
0.911,0.25,0.04,0.18,0.31
0.921,0.24,0.06,0.13,0.28
0.931,0.17,-0.02,-0.14,0.22
0.941,0.19,-0.04,-0.26,0.32
0.951,0.20,-0.05,-0.15,0.25
0.961,0.16,-0.02,0.00,0.16
0.971,0.16,0.02,0.09,0.18
0.981,0.17,0.09,0.06,0.20
0.991,0.17,0.10,0.03,0.20
1.001,0.15,0.08,0.05,0.17
1.011,0.17,0.11,0.00,0.20
1.021,0.26,0.11,-0.04,0.29
1.031,0.15,0.05,0.01,0.16
1.041,0.01,-0.01,0.01,0.02
1.051,-0.14,-0.06,-0.08,0.17
1.061,-0.10,0.00,-0.06,0.12
1.071,0.05,0.05,-0.04,0.09
1.081,0.25,0.14,-0.07,0.30
1.091,0.37,0.29,-0.12,0.49
1.101,0.36,0.18,-0.11,0.42
1.111,0.15,-0.14,0.00,0.20
1.121,-0.06,-0.36,0.01,0.37
1.131,-0.25,-0.35,0.00,0.43
1.141,-0.40,-0.32,0.06,0.52
1.151,-0.27,-0.23,-0.06,0.36
1.161,-0.18,-0.11,-0.11,0.24
1.171,-0.23,-0.09,0.01,0.25
1.181,-0.30,-0.14,0.18,0.38
1.191,-0.09,-0.14,0.24,0.30
1.201,0.13,-0.10,0.13,0.21
1.211,0.25,-0.06,-0.00,0.26
1.221,0.19,-0.07,-0.10,0.22
1.231,0.02,-0.08,-0.33,0.34
1.241,-0.10,-0.17,-0.19,0.28
1.251,-0.17,-0.24,-0.03,0.29
1.261,-0.25,-0.21,-0.12,0.34
1.271,-0.31,-0.15,-0.25,0.42
1.281,-0.39,-0.16,-0.27,0.50
1.291,-0.43,-0.22,-0.15,0.51
1.301,-0.54,-0.26,0.05,0.60
1.311,-0.61,-0.30,0.21,0.72
1.321,-0.50,-0.30,0.24,0.63
1.331,-0.22,-0.22,0.11,0.33
1.341,-0.00,-0.07,0.08,0.11
1.351,0.01,-0.00,0.06,0.06
1.361,0.05,-0.02,-0.02,0.06
1.371,0.10,-0.01,-0.07,0.13
1.381,-0.02,0.01,-0.13,0.13
1.391,-0.15,-0.05,-0.25,0.29
1.401,-0.10,-0.13,-0.36,0.39
1.411,-0.20,-0.17,-0.06,0.28
1.421,-0.23,-0.11,-0.07,0.26
1.431,-0.08,-0.03,0.11,0.14
1.441,0.09,0.08,0.30,0.32
1.451,0.21,0.24,0.33,0.45
1.461,0.31,0.26,0.44,0.59
1.471,0.47,0.19,0.46,0.69
1.481,0.53,0.21,0.43,0.72
1.491,0.43,0.30,0.29,0.60
1.501,0.30,0.42,0.07,0.52
1.511,0.28,0.50,0.15,0.59
1.521,0.18,0.45,0.29,0.56
1.531,0.02,0.27,0.25,0.37
1.541,-0.19,0.18,0.11,0.28
1.551,-0.14,0.10,0.07,0.19
1.562,-0.06,-0.01,0.09,0.11
1.571,-0.05,-0.02,0.01,0.06
1.581,0.08,0.04,0.06,0.11
1.591,0.24,0.07,0.00,0.25
1.601,0.29,0.06,-0.20,0.35
1.611,0.40,-0.06,-0.16,0.44
1.621,0.41,-0.22,0.08,0.47
1.632,0.30,-0.34,0.15,0.48
1.642,0.19,-0.37,-0.08,0.42
1.651,0.07,-0.42,-0.39,0.58
1.661,0.00,-0.46,-0.66,0.80
1.671,-0.07,-0.47,-0.90,1.02
1.681,-0.34,-0.37,-1.01,1.13
1.692,-0.81,-0.12,-1.08,1.35
1.701,-0.99,0.02,-1.17,1.53
1.712,-0.91,-0.10,-1.15,1.48
1.722,-0.90,-0.23,-0.87,1.27
1.732,-0.78,-0.32,-0.33,0.90
1.742,-0.55,-0.32,0.12,0.64
1.752,-0.38,-0.18,0.23,0.47
1.762,-0.27,0.02,0.18,0.32
1.772,-0.26,0.21,0.06,0.34
1.782,-0.08,0.26,0.08,0.28
1.792,0.28,0.15,0.40,0.51
1.802,0.41,0.02,0.64,0.76
1.812,0.35,-0.09,0.73,0.81
1.821,0.35,-0.18,0.66,0.77
1.832,0.45,-0.18,0.58,0.75
1.842,0.48,-0.10,0.47,0.68
1.852,0.41,-0.02,0.35,0.54
1.862,0.29,0.05,0.32,0.44
1.872,0.16,0.06,0.20,0.26
1.882,0.06,0.04,0.05,0.08
1.892,0.03,-0.03,-0.10,0.10
1.902,0.11,-0.16,-0.19,0.27
1.912,0.01,-0.22,-0.31,0.38
1.922,-0.02,-0.23,-0.40,0.46
1.932,0.10,-0.33,-0.39,0.52
1.942,-0.02,-0.40,-0.35,0.53
1.952,-0.14,-0.37,-0.41,0.57
1.962,-0.17,-0.25,-0.40,0.50
1.972,-0.27,-0.15,-0.29,0.42
1.982,-0.25,-0.13,-0.26,0.38
1.992,-0.10,-0.19,-0.35,0.41
2.002,0.06,-0.23,-0.37,0.44
2.012,0.08,-0.22,-0.44,0.50
2.022,0.02,-0.22,-0.56,0.61
2.032,0.10,-0.31,-0.48,0.58
2.042,0.05,-0.35,-0.20,0.41
2.052,-0.13,-0.30,0.13,0.35
2.062,-0.27,-0.23,0.40,0.53
2.072,-0.21,-0.21,0.69,0.75
2.082,-0.06,-0.12,0.54,0.56
2.092,-0.02,-0.02,0.45,0.45
2.102,-0.16,0.01,0.26,0.30
2.112,-0.16,-0.00,0.02,0.16
2.122,0.05,-0.13,-0.27,0.30
2.132,0.11,-0.19,-0.56,0.60
2.142,0.09,-0.23,-0.67,0.72
2.152,0.03,-0.35,-0.64,0.73
2.162,-0.07,-0.40,-0.62,0.74
2.172,-0.14,-0.43,-0.50,0.68
2.182,-0.24,-0.44,-0.34,0.60
2.192,-0.27,-0.41,-0.04,0.49
2.202,-0.11,-0.31,0.42,0.53
2.212,0.06,-0.15,0.52,0.54
2.222,0.10,-0.02,0.49,0.50
2.232,0.12,0.04,0.51,0.53
2.242,0.22,-0.06,0.54,0.58
2.252,0.28,-0.18,0.54,0.64
2.262,0.31,-0.26,0.59,0.72
2.272,0.24,-0.30,0.67,0.77
2.282,0.25,-0.32,0.65,0.77
2.292,0.33,-0.33,0.58,0.74
2.302,0.33,-0.31,0.43,0.63
2.312,0.23,-0.17,0.19,0.35
2.322,0.08,-0.06,0.01,0.10
2.332,-0.05,0.02,-0.14,0.15
2.342,-0.12,0.02,-0.17,0.21
2.352,-0.20,-0.03,-0.12,0.23
2.362,-0.27,-0.10,-0.20,0.35
2.372,-0.27,-0.14,-0.23,0.38
2.382,-0.23,-0.01,-0.23,0.33
2.392,-0.24,0.14,-0.34,0.44
2.402,-0.23,0.19,-0.40,0.50
2.412,-0.16,0.20,-0.24,0.35
2.422,-0.01,0.20,-0.08,0.22
2.432,0.23,0.27,0.05,0.36
2.442,0.36,0.34,0.23,0.54
2.452,0.33,0.41,0.36,0.63
2.462,0.21,0.46,0.40,0.65
2.472,0.08,0.47,0.34,0.59
2.482,-0.05,0.41,0.18,0.45
2.492,-0.10,0.37,-0.00,0.38
2.502,-0.14,0.35,-0.13,0.40
2.512,-0.26,0.37,-0.17,0.48
2.522,-0.36,0.34,-0.13,0.51
2.532,-0.33,0.30,-0.10,0.46
2.542,-0.24,0.22,-0.12,0.35
2.552,-0.15,0.18,-0.09,0.25
2.562,-0.08,0.20,-0.03,0.21
2.572,0.02,0.17,-0.03,0.17
2.582,0.06,0.13,-0.08,0.17
2.592,0.04,0.08,-0.09,0.13
2.602,-0.04,0.04,-0.01,0.06
2.612,-0.13,0.04,0.07,0.16
2.622,-0.05,-0.05,0.10,0.12
2.632,0.03,-0.18,0.10,0.21
2.642,0.04,-0.23,0.14,0.27
2.652,0.06,-0.26,0.16,0.31
2.662,0.14,-0.27,0.12,0.33
2.673,0.26,-0.29,0.07,0.40
2.682,0.27,-0.38,0.04,0.47
2.692,0.14,-0.38,0.03,0.41
2.703,0.04,-0.31,0.03,0.31
2.713,0.04,-0.31,-0.00,0.31
2.723,0.07,-0.35,-0.03,0.36
2.733,0.06,-0.35,-0.03,0.36
2.742,-0.05,-0.27,0.07,0.29
2.753,-0.05,-0.18,0.13,0.23
2.762,0.15,-0.17,0.12,0.26
2.772,0.35,-0.18,0.10,0.40
2.783,0.29,-0.17,0.08,0.35
2.793,0.18,-0.15,0.05,0.23
2.803,0.08,-0.09,-0.04,0.12
2.812,0.00,-0.09,-0.16,0.19
2.823,-0.07,-0.12,-0.07,0.15
2.833,-0.09,-0.08,-0.19,0.23
2.843,-0.14,-0.01,-0.16,0.21
2.853,-0.10,0.03,-0.15,0.19
2.863,0.01,0.02,-0.06,0.06
2.873,0.08,-0.08,-0.01,0.11
2.883,0.12,-0.21,0.06,0.24
2.893,0.09,-0.24,0.14,0.29
2.903,-0.01,-0.17,0.18,0.25
2.913,-0.11,0.00,0.07,0.13
2.923,-0.19,0.12,-0.05,0.23
2.933,-0.15,0.04,-0.04,0.16
2.943,-0.18,-0.16,-0.01,0.24
2.953,-0.75,0.20,0.16,0.80
2.963,-0.51,0.57,0.16,0.78
2.973,-0.07,0.61,-0.09,0.62
2.983,0.08,0.32,-0.20,0.39
2.993,0.10,0.03,-0.12,0.16
3.003,0.15,-0.18,-0.04,0.24
3.013,0.02,-0.24,-0.00,0.25
3.023,-0.39,-0.15,-0.07,0.42
3.033,-0.55,0.01,-0.08,0.56
3.043,-0.26,0.09,0.03,0.28
3.053,-0.60,0.48,-0.17,0.78
3.063,-0.41,0.44,-0.04,0.60
3.073,0.07,0.08,0.04,0.12
3.083,0.35,-0.27,-0.10,0.45
3.093,0.43,-0.47,-0.07,0.64
3.103,0.25,-0.54,0.16,0.62
3.113,0.10,-0.46,0.12,0.49
3.123,0.12,-0.38,0.00,0.40
3.133,0.16,-0.28,-0.09,0.34
3.143,0.19,-0.26,-0.09,0.33
3.153,0.21,-0.28,0.14,0.38
3.163,0.19,-0.26,0.21,0.38
3.173,0.07,-0.19,0.14,0.25
3.183,0.01,-0.12,0.05,0.13
3.193,0.07,-0.05,0.03,0.09
3.203,0.06,0.01,0.07,0.09
3.213,0.05,0.02,0.05,0.07
3.223,0.05,-0.05,0.01,0.07
3.233,-0.00,-0.06,-0.04,0.07
3.243,-0.04,-0.04,-0.07,0.09
3.253,-0.11,-0.02,-0.04,0.12
3.263,-0.13,0.04,-0.01,0.13
3.273,-0.08,0.08,-0.06,0.13
3.283,0.00,0.05,-0.07,0.09
3.293,0.03,0.01,0.01,0.03
3.303,0.03,-0.01,0.08,0.09
3.313,0.01,-0.02,0.06,0.07
3.323,0.00,-0.03,0.04,0.05
3.333,-0.04,-0.07,0.03,0.08
3.343,-0.06,-0.11,-0.01,0.12
3.353,-0.01,-0.14,-0.04,0.14
3.363,0.11,-0.19,-0.02,0.22
3.373,0.19,-0.17,-0.01,0.25
3.383,0.14,-0.10,-0.03,0.17
3.393,0.05,-0.06,-0.02,0.08
3.403,-0.06,-0.01,0.01,0.06
3.413,-0.13,-0.01,-0.04,0.13
3.423,-0.16,-0.03,-0.10,0.19
3.433,-0.14,-0.02,-0.19,0.23
3.443,-0.09,-0.05,-0.41,0.42
3.453,-0.16,-0.05,0.08,0.19
3.463,-0.26,-0.17,0.34,0.46
3.473,-0.16,-0.13,-0.00,0.20
3.483,-0.10,0.01,-0.05,0.11
3.493,-0.03,-0.06,0.10,0.12
3.503,0.04,-0.08,0.13,0.16
3.513,0.12,-0.01,-0.07,0.14
3.523,0.15,0.00,-0.06,0.16
3.533,-0.02,0.05,0.09,0.10
3.543,-0.29,0.13,-0.04,0.32
3.553,-0.34,0.11,-0.14,0.38
3.563,-0.18,0.02,-0.29,0.34
3.573,0.02,-0.09,-0.14,0.17
3.583,0.12,-0.14,0.01,0.18
3.593,0.07,-0.11,0.17,0.21
3.603,0.12,-0.08,0.26,0.29
3.613,0.13,-0.08,0.27,0.31
3.623,0.09,-0.06,0.21,0.24
3.633,0.06,-0.11,0.16,0.20
3.643,-0.01,-0.14,0.10,0.17
3.653,-0.07,-0.11,0.02,0.13
3.663,-0.14,-0.07,-0.01,0.16
3.673,-0.15,-0.05,-0.04,0.16
3.683,-0.14,-0.04,-0.09,0.17
3.693,-0.06,-0.04,-0.10,0.12
3.703,0.06,-0.05,-0.09,0.12
3.713,0.17,-0.03,-0.07,0.19
3.723,0.27,-0.01,-0.00,0.27
3.733,0.25,0.01,0.03,0.25
3.743,0.15,-0.00,0.01,0.16
3.753,0.05,0.00,-0.09,0.10
3.763,-0.10,-0.01,-0.09,0.13
3.773,-0.17,-0.03,-0.00,0.18
3.783,-0.16,-0.03,0.05,0.17
3.793,-0.08,-0.01,-0.02,0.08
3.803,-0.06,-0.01,0.02,0.06
3.813,0.02,-0.01,0.10,0.10
3.823,0.03,-0.00,-0.01,0.03
3.833,0.08,0.00,-0.10,0.13
3.843,0.20,0.01,-0.11,0.23
3.853,0.22,0.08,-0.03,0.24
3.863,0.25,0.14,0.03,0.29
3.873,0.27,0.19,-0.01,0.33
3.883,0.33,0.21,-0.01,0.39
3.893,0.28,0.20,-0.00,0.34
3.903,0.13,0.13,0.06,0.19
3.913,-0.04,0.05,0.12,0.14
3.923,-0.30,-0.02,0.14,0.33
3.933,-0.44,-0.07,0.13,0.46
3.943,-0.34,-0.16,0.15,0.40
3.953,-0.20,-0.26,0.07,0.33
3.963,-0.12,-0.30,-0.00,0.33
3.973,-0.05,-0.28,-0.02,0.29
3.984,0.02,-0.23,0.00,0.23
3.994,0.14,-0.13,0.00,0.19
4.003,0.21,-0.04,-0.04,0.22
4.014,0.20,0.01,-0.05,0.21
4.024,0.12,-0.00,-0.06,0.14
4.034,0.04,0.01,-0.00,0.04
4.044,-0.01,-0.01,0.03,0.04
4.054,-0.06,-0.00,-0.00,0.06
4.064,-0.11,-0.00,-0.04,0.11
4.074,-0.11,-0.01,-0.06,0.13
4.083,-0.08,-0.01,-0.06,0.10
4.094,-0.09,0.02,-0.02,0.09
4.104,-0.06,0.02,0.01,0.06
4.114,-0.04,-0.06,0.06,0.09
4.124,-0.02,-0.07,0.11,0.13
4.134,-0.01,-0.02,0.07,0.07
4.144,0.02,0.05,0.06,0.08
4.154,0.11,0.00,0.11,0.16
4.164,0.13,-0.07,0.03,0.15
4.174,0.04,-0.07,-0.14,0.17
4.184,-0.05,-0.05,0.00,0.07
4.194,-0.11,-0.06,-0.03,0.13
4.204,-0.23,-0.09,-0.08,0.25
4.214,-0.22,-0.07,-0.09,0.25
4.224,-0.06,-0.11,-0.04,0.13
4.234,0.09,-0.01,-0.03,0.09
4.244,0.01,0.05,-0.13,0.14
4.254,-0.09,-0.04,-0.05,0.11
4.264,-0.04,-0.14,0.11,0.18
4.274,0.09,-0.16,0.22,0.28
4.284,0.23,-0.11,0.16,0.30
4.294,0.26,-0.03,0.07,0.27
4.304,0.22,0.02,0.05,0.23
4.314,0.15,0.09,0.05,0.18
4.324,0.20,0.12,-0.00,0.23
4.334,0.21,0.01,-0.03,0.22
4.344,0.07,-0.01,-0.00,0.07
4.354,-0.09,0.04,0.07,0.12
4.364,-0.23,0.03,0.14,0.28
4.374,-0.31,-0.06,0.09,0.33
4.384,-0.27,-0.08,-0.04,0.28
4.394,-0.04,-0.02,-0.11,0.12
4.404,0.08,0.04,-0.13,0.16
4.414,0.16,0.02,-0.03,0.16
4.424,0.16,-0.02,0.06,0.17
4.434,0.13,0.02,0.05,0.14
4.444,0.09,0.09,-0.06,0.14
4.454,0.06,0.03,-0.03,0.07
4.464,0.18,0.04,0.05,0.19
4.474,0.31,0.02,0.19,0.37
4.484,0.04,-0.28,0.24,0.37
4.494,-0.08,-0.31,-0.38,0.50
4.504,-0.18,-0.13,-0.30,0.37
4.514,-0.37,0.17,0.11,0.42
4.524,-0.36,0.09,-0.10,0.38
4.534,-0.25,-0.10,0.01,0.27
4.544,-0.18,-0.13,0.12,0.25
4.554,-0.06,-0.11,-0.01,0.13
4.564,0.12,-0.09,0.02,0.15
4.574,0.22,-0.03,0.04,0.22
4.584,0.25,-0.03,-0.02,0.25
4.594,0.28,-0.07,0.01,0.29
4.604,0.21,-0.09,0.08,0.24
4.614,0.08,-0.09,0.04,0.13
4.624,-0.08,-0.10,-0.00,0.13
4.634,-0.19,-0.05,-0.03,0.20
4.644,-0.16,0.01,0.03,0.17
4.654,-0.02,0.02,0.06,0.07
4.664,0.15,-0.04,0.03,0.16
4.674,0.17,-0.07,-0.27,0.33
4.684,-0.02,-0.08,-0.03,0.08
4.694,0.06,-0.09,0.42,0.43
4.704,0.10,-0.01,0.06,0.12
4.714,-0.02,0.10,-0.06,0.12
4.724,-0.08,0.09,-0.08,0.14
4.734,-0.00,0.02,-0.08,0.08
4.744,0.04,-0.01,-0.06,0.07
4.754,0.01,0.03,-0.04,0.05
4.764,-0.04,0.05,-0.05,0.08
4.774,-0.11,0.02,-0.02,0.12
4.784,-0.10,-0.05,0.04,0.12
4.794,-0.04,-0.04,0.10,0.12
4.804,0.04,0.00,0.15,0.15
4.814,0.12,0.05,0.11,0.17
4.824,0.13,0.01,-0.13,0.18
4.834,0.07,-0.08,-0.17,0.20
4.844,-0.03,-0.10,0.00,0.10
4.854,-0.05,-0.04,-0.13,0.14
4.864,-0.04,0.00,-0.10,0.11
4.874,-0.02,0.01,-0.02,0.03
4.884,-0.02,-0.03,-0.08,0.09
4.894,-0.01,-0.07,-0.11,0.13
4.904,-0.07,-0.08,0.01,0.10
4.914,-0.03,-0.03,0.12,0.13
4.924,0.06,0.01,0.19,0.20
4.934,0.14,0.03,0.16,0.21
4.944,0.15,-0.03,0.08,0.17
4.954,0.10,-0.08,0.04,0.13
4.964,0.09,-0.09,0.04,0.13
4.974,0.07,-0.05,0.02,0.09
4.984,0.04,-0.00,-0.00,0.04
4.994,-0.00,0.01,-0.05,0.05
5.004,-0.02,0.02,-0.04,0.05
5.014,-0.03,0.03,-0.01,0.05
5.024,-0.04,0.06,-0.02,0.08
5.034,-0.07,0.07,0.01,0.10
5.044,-0.07,0.06,0.05,0.11
5.054,-0.04,0.02,0.05,0.06
5.065,-0.06,0.03,0.01,0.07
5.075,-0.10,0.03,0.01,0.10
5.084,-0.13,0.02,0.02,0.13
5.095,-0.08,0.02,-0.01,0.08
5.105,-0.03,0.00,-0.05,0.06
5.115,-0.03,-0.02,0.13,0.14
5.125,-0.00,-0.01,0.14,0.14
5.135,-0.03,-0.02,-0.02,0.04
5.145,-0.03,-0.06,-0.15,0.17
5.155,-0.04,-0.06,-0.17,0.18
5.165,-0.03,-0.06,-0.04,0.08
5.175,0.02,-0.04,0.06,0.08
5.185,0.01,-0.02,0.07,0.07
5.195,0.02,-0.04,0.04,0.06
5.205,0.04,-0.05,0.08,0.10
5.215,0.05,-0.07,0.11,0.14
5.224,0.06,-0.06,0.11,0.14
5.235,0.04,-0.05,0.10,0.12
5.245,0.01,-0.05,0.06,0.08
5.255,0.02,-0.02,0.04,0.05
5.265,0.03,-0.02,0.01,0.03
5.275,0.02,-0.03,-0.04,0.05
5.285,0.00,-0.01,-0.02,0.03
5.295,0.04,0.03,-0.00,0.05
5.305,0.04,0.05,0.00,0.07
5.315,0.01,0.04,-0.02,0.04
5.325,-0.01,0.02,-0.05,0.06
5.335,-0.03,0.03,-0.02,0.05
5.345,-0.06,0.01,-0.01,0.06
5.355,-0.04,0.01,-0.02,0.05
5.365,-0.04,0.01,-0.01,0.04
5.375,-0.06,0.01,-0.01,0.07
5.385,-0.05,-0.00,-0.04,0.06
5.395,-0.05,0.01,-0.07,0.09
5.405,-0.02,0.01,-0.06,0.06
5.415,-0.04,0.00,-0.03,0.05
5.425,-0.04,0.01,-0.02,0.05
5.435,-0.03,0.00,-0.03,0.04
5.445,-0.01,0.01,-0.02,0.02
5.455,0.01,0.01,-0.04,0.04
5.465,-0.03,0.00,-0.05,0.05
5.475,-0.03,-0.02,-0.05,0.06
5.485,-0.01,-0.03,-0.04,0.05
5.495,0.03,-0.04,-0.00,0.05
5.505,0.05,-0.03,0.09,0.11
5.515,0.02,-0.01,0.10,0.11
5.525,-0.02,0.00,0.07,0.07
5.535,-0.01,0.01,0.06,0.06
5.545,-0.01,0.01,0.05,0.05
5.555,0.06,0.00,0.01,0.06
5.565,0.11,-0.03,-0.17,0.21
5.575,0.02,-0.05,-0.05,0.07
5.585,-0.07,-0.03,-0.08,0.12
5.595,-0.12,0.01,-0.04,0.13
5.605,-0.02,0.00,-0.04,0.05
5.615,-0.01,-0.01,-0.14,0.14
5.625,-0.01,-0.05,-0.14,0.15
5.635,0.00,-0.04,-0.05,0.07
5.645,0.04,-0.03,0.10,0.11
5.655,0.07,-0.05,0.18,0.19
5.665,0.07,-0.02,0.15,0.16
5.675,0.06,-0.07,0.03,0.10
5.685,0.03,-0.09,-0.03,0.10
5.695,0.02,-0.06,0.00,0.06
5.705,0.01,-0.03,0.01,0.03
5.715,-0.00,-0.01,-0.00,0.01
5.725,0.00,-0.03,-0.00,0.03
5.735,-0.00,-0.02,-0.01,0.03
5.745,0.03,0.02,-0.02,0.04
5.755,0.04,0.03,-0.01,0.05
5.765,-0.01,0.03,0.01,0.03
5.775,-0.05,0.01,0.02,0.05
5.785,-0.07,-0.00,0.03,0.07
5.795,-0.06,-0.03,0.00,0.07
5.805,-0.06,-0.03,-0.03,0.08
5.815,-0.06,-0.03,-0.03,0.07
5.825,-0.02,-0.02,-0.06,0.06
5.835,-0.01,-0.01,-0.10,0.10
5.845,-0.03,-0.00,0.08,0.08
5.855,-0.01,0.01,0.15,0.15
5.865,-0.00,-0.00,0.04,0.04
5.875,-0.01,-0.01,-0.06,0.06
5.885,-0.03,-0.02,-0.13,0.14
5.895,-0.00,-0.01,-0.12,0.12
5.905,0.02,-0.03,-0.02,0.04
5.915,0.01,-0.02,0.05,0.06
5.925,0.02,-0.02,0.05,0.06
5.935,0.06,-0.03,0.03,0.07
5.945,0.08,-0.02,0.03,0.09
5.955,0.08,-0.02,0.08,0.12
5.965,0.03,-0.02,0.10,0.10
5.975,0.01,-0.00,0.07,0.07
5.985,0.01,0.01,0.03,0.03
5.995,0.02,0.01,-0.01,0.02
6.005,0.04,-0.01,-0.01,0.05
6.015,0.04,0.00,0.02,0.05
6.025,0.02,-0.00,0.03,0.04
6.035,0.03,0.00,-0.00,0.03
6.045,0.03,-0.00,-0.04,0.05
6.055,0.03,-0.00,-0.04,0.05
6.065,0.01,-0.01,-0.03,0.03
6.075,-0.02,-0.01,-0.00,0.02
6.085,0.00,0.02,-0.01,0.02
6.095,-0.04,0.00,-0.02,0.05
6.105,-0.08,-0.01,-0.01,0.08
6.115,-0.07,-0.02,0.02,0.08
6.125,-0.05,-0.01,-0.01,0.05
6.135,-0.03,0.00,-0.02,0.04
6.145,-0.02,0.01,0.00,0.02
6.155,-0.01,-0.01,0.03,0.03
6.165,-0.01,-0.01,0.00,0.01
6.175,0.02,-0.01,-0.02,0.04
6.185,0.03,0.01,-0.01,0.03
6.195,0.03,0.02,-0.00,0.04
6.205,0.02,0.01,0.02,0.02
6.215,0.01,-0.01,0.00,0.01
6.226,-0.02,-0.00,0.00,0.02
6.236,-0.04,-0.01,0.02,0.04
6.245,-0.03,0.01,0.01,0.03
6.256,-0.01,0.01,-0.01,0.01
6.265,0.03,-0.01,-0.01,0.03
6.275,0.08,-0.02,-0.00,0.08
6.286,0.08,0.01,0.02,0.08
6.296,0.08,0.01,0.01,0.08
6.305,0.03,0.01,0.00,0.03
6.316,0.02,-0.01,0.04,0.04
6.326,0.02,-0.02,0.04,0.05
6.335,0.02,-0.04,0.02,0.05
6.346,-0.00,-0.03,0.01,0.03
6.356,0.00,-0.02,0.02,0.03
6.366,0.00,-0.02,-0.00,0.02
6.376,0.02,-0.03,-0.03,0.04
6.386,-0.01,-0.03,-0.05,0.06
6.396,-0.01,-0.01,-0.06,0.06
6.406,-0.02,-0.04,-0.01,0.04
6.416,-0.01,-0.02,0.08,0.08
6.426,-0.00,-0.00,0.07,0.07
6.436,0.03,0.03,0.03,0.05
6.446,0.03,0.07,0.07,0.10
6.456,-0.06,0.08,0.19,0.22
6.466,-0.04,0.07,0.18,0.19
6.476,0.06,0.01,0.02,0.06
6.486,0.09,-0.04,0.07,0.12
6.496,0.06,-0.00,-0.11,0.12
6.506,-0.02,0.05,-0.20,0.20
6.516,-0.05,0.05,-0.22,0.23
6.526,-0.04,-0.01,-0.21,0.21
6.536,-0.05,-0.06,-0.19,0.21
6.546,-0.02,-0.05,-0.07,0.09
6.556,0.02,-0.01,0.05,0.06
6.566,0.04,0.01,0.10,0.11
6.576,-0.00,0.01,0.10,0.10
6.586,-0.03,-0.01,0.06,0.07
6.596,-0.00,-0.06,0.02,0.07
6.606,0.08,-0.08,-0.00,0.11
6.616,0.08,-0.06,0.02,0.11
6.626,0.05,-0.04,0.01,0.07
6.636,0.04,-0.07,0.02,0.08
6.646,0.02,-0.08,0.05,0.10
6.656,0.01,-0.05,0.03,0.06
6.666,0.06,-0.03,0.03,0.08
6.676,0.05,-0.02,0.02,0.06
6.686,-0.01,-0.01,0.01,0.02
6.696,-0.16,0.01,-0.02,0.16
6.706,-0.21,0.03,-0.03,0.22
6.716,-0.10,-0.02,-0.02,0.11
6.726,-0.08,-0.02,-0.02,0.09
6.736,-0.06,-0.02,-0.03,0.07
6.746,-0.01,0.01,-0.02,0.02
6.756,0.00,0.02,0.03,0.04
6.766,0.03,0.01,0.13,0.14
6.776,0.07,-0.00,0.09,0.12
6.786,0.09,-0.02,-0.03,0.10
6.796,0.03,-0.03,-0.14,0.15
6.806,-0.10,0.01,-0.17,0.20
6.816,-0.23,0.10,-0.09,0.27
6.826,-0.17,0.08,0.03,0.19
6.836,-0.02,0.03,0.10,0.11
6.846,0.13,-0.04,0.09,0.16
6.856,0.26,-0.05,0.09,0.28
6.866,0.28,-0.05,0.10,0.30
6.876,0.23,-0.07,0.08,0.25
6.886,0.14,-0.06,0.06,0.16
6.896,-0.04,-0.04,0.01,0.06
6.906,-0.13,0.02,-0.01,0.13
6.916,-0.07,-0.00,-0.00,0.07
6.926,0.01,-0.08,-0.01,0.08
6.936,0.07,-0.08,0.01,0.10
6.946,0.11,-0.03,0.02,0.12
6.956,0.11,-0.01,0.01,0.11
6.966,0.05,-0.01,-0.02,0.06
6.976,-0.03,-0.02,-0.02,0.04
6.986,-0.07,-0.03,-0.02,0.08
6.996,-0.06,-0.03,-0.03,0.08
7.006,-0.06,-0.02,-0.04,0.07
7.016,-0.04,-0.01,-0.02,0.05
7.026,-0.04,0.03,-0.01,0.05
7.036,-0.07,0.03,-0.02,0.08
7.046,-0.10,0.06,-0.04,0.12
7.056,-0.16,0.06,-0.03,0.17
7.066,-0.11,0.03,0.01,0.12
7.076,-0.05,0.01,0.01,0.05
7.086,0.00,-0.02,-0.02,0.03
7.096,0.06,-0.01,0.00,0.06
7.106,0.13,-0.01,0.01,0.13
7.116,0.12,-0.02,0.02,0.12
7.126,0.08,-0.05,0.02,0.09
7.136,0.03,-0.05,0.01,0.06
7.146,-0.02,-0.04,-0.01,0.05
7.156,-0.01,-0.02,0.01,0.02
7.166,-0.03,0.02,-0.01,0.03
7.176,-0.04,0.04,-0.01,0.06
7.186,-0.06,0.00,0.01,0.06
7.196,-0.02,-0.03,0.03,0.05
7.206,0.05,-0.00,0.02,0.06
7.216,0.08,0.00,0.02,0.08
7.226,0.07,0.00,0.02,0.07
7.236,0.07,-0.00,-0.01,0.07
7.246,0.05,-0.02,-0.04,0.07
7.256,0.00,-0.03,-0.06,0.06
7.266,-0.01,-0.02,-0.04,0.04
7.276,-0.02,-0.04,-0.00,0.04
7.286,0.00,-0.05,0.06,0.08
7.296,0.01,-0.02,0.08,0.08
7.306,-0.01,-0.02,0.04,0.05
7.316,-0.02,-0.00,0.04,0.05
7.326,-0.02,0.00,0.07,0.07
7.336,-0.01,-0.02,0.01,0.02
7.346,0.01,-0.03,-0.15,0.15
7.356,0.01,-0.06,-0.07,0.09
7.366,-0.03,-0.01,-0.09,0.10
7.376,-0.10,0.04,-0.02,0.11
7.387,-0.09,0.04,-0.07,0.12
7.397,-0.05,0.00,-0.18,0.18
7.406,-0.03,-0.03,-0.14,0.15
7.416,-0.04,0.02,-0.01,0.04
7.427,-0.03,0.02,0.10,0.11
7.437,0.01,0.00,0.15,0.15
7.447,0.03,-0.01,0.13,0.14
7.457,0.06,0.00,0.05,0.08
7.467,0.09,-0.02,0.01,0.09
7.477,0.10,-0.03,0.02,0.11
7.487,0.07,-0.01,0.01,0.07
7.497,0.08,0.01,0.02,0.08
7.507,0.11,0.01,0.06,0.12
7.517,0.05,0.03,0.04,0.07
7.527,0.02,0.03,0.02,0.04
7.537,-0.02,0.04,0.01,0.05
7.547,-0.03,0.05,-0.00,0.06
7.557,-0.05,0.03,-0.01,0.06
7.567,-0.05,0.02,-0.00,0.05
7.577,-0.06,-0.00,-0.03,0.07
7.587,-0.05,0.00,-0.03,0.06
7.597,-0.09,-0.00,-0.01,0.09
7.607,-0.19,0.02,-0.03,0.19
7.617,-0.21,0.06,-0.07,0.22
7.627,-0.12,0.06,-0.01,0.14
7.637,-0.04,0.03,0.12,0.13
7.647,0.06,-0.04,0.06,0.10
7.657,0.11,-0.04,0.00,0.12
7.667,0.16,-0.04,-0.11,0.19
7.677,0.11,-0.02,-0.12,0.16
7.687,0.06,-0.03,-0.03,0.08
7.697,0.00,-0.07,0.05,0.08
7.707,-0.09,-0.06,0.05,0.12
7.717,-0.08,-0.01,0.02,0.09
7.727,-0.09,-0.00,-0.01,0.09
7.737,-0.15,0.05,-0.00,0.16
7.747,-0.06,0.03,0.06,0.09
7.757,0.04,-0.06,0.09,0.12
7.767,0.17,-0.05,0.05,0.18
7.777,0.27,-0.02,0.02,0.27
7.787,0.28,-0.01,0.02,0.28
7.797,0.18,-0.01,0.03,0.19
7.807,0.07,-0.01,0.04,0.08
7.817,-0.02,0.01,0.02,0.03
7.827,-0.06,0.03,-0.05,0.08
7.837,-0.10,0.03,-0.08,0.13
7.847,-0.17,-0.02,-0.04,0.17
7.857,-0.09,-0.00,0.00,0.09
7.867,0.07,-0.01,-0.02,0.07
7.877,0.10,-0.01,-0.02,0.11
7.887,0.02,0.02,-0.02,0.03
7.897,-0.08,0.04,-0.06,0.11
7.907,-0.10,0.04,-0.06,0.13
7.917,-0.13,0.04,-0.00,0.13
7.927,-0.13,0.02,0.05,0.14
7.937,-0.04,0.01,0.05,0.06
7.947,0.04,-0.02,0.05,0.07
7.957,0.12,-0.03,0.03,0.13
7.967,0.15,-0.03,0.01,0.16
7.977,0.14,-0.03,0.01,0.14
7.987,0.03,-0.02,0.01,0.04
7.997,-0.06,-0.03,-0.06,0.09
8.007,-0.14,0.01,-0.03,0.15
8.017,-0.14,0.02,0.03,0.14
8.027,-0.03,-0.02,0.01,0.04
8.037,0.04,-0.03,-0.00,0.05
8.047,0.15,-0.05,-0.02,0.16
8.057,0.17,-0.04,-0.02,0.18
8.067,0.12,-0.03,-0.03,0.13
8.077,0.09,-0.01,-0.00,0.09
8.087,0.03,0.01,0.01,0.03
8.097,0.02,-0.02,0.02,0.04
8.107,0.00,-0.02,0.04,0.04
8.117,-0.05,0.00,0.06,0.08
8.127,-0.03,-0.03,0.07,0.08
8.137,0.06,-0.05,0.03,0.08
8.147,0.10,-0.02,-0.05,0.12
8.157,0.12,0.01,-0.10,0.15
8.167,0.08,0.00,-0.06,0.10
8.177,0.04,-0.03,-0.03,0.06
8.187,-0.05,-0.01,0.01,0.05
8.197,-0.05,0.01,0.04,0.07
8.207,-0.07,0.03,0.00,0.08
8.217,-0.11,0.04,0.00,0.12
8.227,-0.03,0.04,0.02,0.05
8.237,0.04,0.02,0.07,0.08
8.247,0.07,-0.00,-0.04,0.08
8.257,0.09,-0.05,-0.01,0.10
8.267,0.00,-0.05,0.01,0.05
8.277,-0.06,-0.00,-0.15,0.16
8.287,-0.05,0.01,-0.10,0.11
8.297,-0.03,-0.01,-0.11,0.12
8.307,-0.09,0.00,-0.17,0.19
8.317,-0.11,-0.03,-0.11,0.15
8.327,-0.05,-0.03,0.09,0.11
8.337,0.03,-0.01,0.17,0.17
8.347,0.09,0.01,0.17,0.19
8.357,0.10,0.02,0.12,0.15
8.367,0.09,0.00,0.04,0.10
8.377,0.05,0.02,-0.01,0.05
8.387,0.01,0.04,0.01,0.05
8.397,0.03,0.01,0.01,0.03
8.407,0.03,0.00,-0.01,0.04
8.417,0.05,0.01,0.02,0.05
8.427,0.07,0.02,0.05,0.08
8.437,0.05,0.03,0.04,0.07
8.448,0.01,0.02,0.03,0.03
8.458,-0.04,-0.01,0.01,0.04
8.467,-0.06,-0.01,0.02,0.07
8.478,-0.08,-0.00,0.01,0.08
8.487,-0.09,0.00,0.02,0.10
8.497,-0.10,-0.02,0.02,0.10
8.507,-0.07,-0.02,0.01,0.07
8.517,-0.03,-0.02,-0.01,0.04
8.527,-0.03,-0.03,-0.05,0.06
8.537,-0.01,-0.02,0.07,0.08
8.547,0.02,-0.02,0.11,0.11
8.557,-0.02,-0.01,-0.01,0.03
8.567,-0.00,0.00,-0.07,0.07
8.577,-0.04,-0.02,-0.12,0.13
8.588,-0.07,-0.03,-0.09,0.12
8.598,-0.06,-0.05,-0.02,0.08
8.608,-0.04,-0.01,0.05,0.07
8.617,-0.01,0.03,0.08,0.08
8.628,0.06,0.03,0.05,0.08
8.638,0.09,0.01,0.04,0.10
8.648,0.08,0.00,0.05,0.10
8.657,0.08,0.00,0.05,0.09
8.668,0.07,-0.02,0.03,0.08
8.678,0.02,-0.02,-0.04,0.05
8.688,-0.00,0.01,-0.05,0.05
8.698,0.03,0.01,-0.03,0.05
8.708,0.06,0.00,-0.01,0.06
8.718,0.04,0.02,-0.02,0.05
8.728,0.03,0.02,-0.01,0.03
8.738,0.02,0.02,-0.01,0.03
8.748,-0.01,0.01,0.01,0.01
8.758,-0.06,0.02,-0.05,0.08
8.768,-0.09,0.03,-0.04,0.10
8.778,-0.11,0.02,-0.03,0.11
8.788,-0.07,0.02,-0.04,0.08
8.798,-0.03,0.03,-0.00,0.05
8.808,-0.03,0.04,-0.00,0.05
8.818,-0.03,0.02,0.00,0.04
8.828,-0.05,0.01,-0.01,0.06
8.838,-0.05,-0.01,-0.02,0.05
8.848,-0.02,0.01,-0.02,0.03
8.858,-0.02,0.00,-0.02,0.03
8.868,-0.02,-0.02,-0.02,0.03
8.878,-0.02,-0.04,-0.01,0.04
8.888,0.01,-0.02,-0.00,0.02
8.898,0.02,-0.01,-0.02,0.03
8.908,0.02,-0.02,-0.03,0.04
8.918,0.04,-0.01,-0.00,0.04
8.928,0.05,0.00,0.04,0.06
8.938,0.02,0.01,0.03,0.04
8.948,-0.00,-0.00,-0.01,0.01
8.958,0.02,-0.02,-0.02,0.03
8.968,0.02,-0.01,0.01,0.03
8.978,0.02,0.00,0.04,0.05
8.988,0.03,-0.01,0.04,0.05
8.998,0.02,-0.02,0.02,0.04
9.008,0.02,-0.00,0.02,0.03
9.018,0.02,-0.02,-0.01,0.02
9.028,0.01,-0.02,-0.06,0.07
9.038,0.00,0.00,-0.08,0.08
9.048,-0.01,-0.01,-0.05,0.05
9.058,0.00,-0.01,0.03,0.03
9.068,-0.02,0.01,0.06,0.06
9.078,-0.01,0.02,0.04,0.05
9.088,-0.01,0.03,0.02,0.03
9.098,-0.01,0.03,0.02,0.04
9.108,-0.02,0.02,0.02,0.04
9.118,-0.03,0.02,-0.12,0.13
9.128,-0.02,-0.05,-0.08,0.09
9.138,-0.02,-0.04,-0.01,0.05
9.148,-0.08,0.01,-0.08,0.11
9.158,-0.05,-0.00,-0.08,0.09
9.168,0.00,-0.02,-0.15,0.15
9.178,-0.01,-0.01,-0.17,0.17
9.188,-0.03,-0.03,-0.09,0.10
9.198,-0.02,-0.03,0.08,0.09
9.208,0.02,0.01,0.19,0.19
9.218,0.07,0.02,0.22,0.23
9.228,0.08,-0.00,0.11,0.14
9.238,0.09,-0.02,-0.00,0.09
9.248,0.12,-0.02,-0.03,0.12
9.258,0.08,0.00,-0.02,0.08
9.268,0.03,0.00,-0.01,0.03
9.278,0.02,-0.01,0.01,0.02
9.288,-0.03,0.00,-0.00,0.03
9.298,-0.01,0.01,0.01,0.02
9.308,0.02,0.02,0.02,0.04
9.318,0.03,0.02,0.00,0.04
9.328,0.01,0.03,0.00,0.03
9.338,-0.03,0.01,0.02,0.04
9.348,-0.06,0.01,0.02,0.06
9.358,-0.05,-0.01,0.01,0.05
9.368,-0.06,0.01,-0.00,0.06
9.378,-0.08,-0.01,-0.04,0.09
9.388,-0.04,-0.02,-0.04,0.06
9.398,-0.01,-0.01,-0.08,0.08
9.408,-0.01,-0.01,0.04,0.05
9.418,-0.01,-0.01,0.10,0.10
9.428,0.00,-0.01,0.01,0.02
9.438,-0.00,-0.01,-0.06,0.06
9.448,-0.03,-0.01,-0.11,0.12
9.458,-0.06,0.00,-0.10,0.12
9.468,-0.01,-0.01,-0.02,0.02
9.478,-0.02,-0.02,0.05,0.06
9.488,0.01,-0.00,0.04,0.04
9.498,0.06,-0.01,0.01,0.06
9.508,0.06,-0.01,0.03,0.07
9.518,0.07,-0.00,0.06,0.09
9.528,0.08,-0.01,0.05,0.10
9.538,0.07,-0.02,0.07,0.10
9.548,0.05,-0.02,0.00,0.06
9.558,0.05,-0.01,-0.01,0.05
9.568,0.05,-0.01,-0.02,0.05
9.578,0.06,0.01,0.01,0.07
9.588,0.04,0.02,0.03,0.05
9.598,0.02,0.03,0.03,0.04
9.608,0.04,0.00,0.01,0.04
9.618,0.03,0.02,-0.03,0.05
9.628,-0.01,0.04,-0.05,0.06
9.638,-0.05,0.03,-0.04,0.07
9.648,-0.08,-0.00,0.00,0.08
9.658,-0.11,0.02,-0.00,0.11
9.668,-0.10,0.02,0.02,0.10
9.678,-0.04,0.01,0.01,0.04
9.688,-0.01,0.02,0.00,0.02
9.698,0.00,0.02,0.00,0.02
9.709,-0.02,0.00,-0.00,0.02
9.719,-0.03,-0.02,-0.01,0.03
9.729,-0.02,0.01,-0.02,0.02
9.738,0.01,0.02,-0.02,0.02
9.748,0.01,-0.01,-0.01,0.02
9.759,-0.01,-0.01,0.01,0.02
9.768,-0.00,-0.02,0.02,0.03
9.779,0.02,-0.00,0.02,0.02
9.788,0.03,-0.01,0.03,0.04
9.799,0.04,-0.02,0.01,0.04
9.809,0.02,-0.01,0.01,0.02
9.818,0.02,-0.03,-0.01,0.04
9.829,0.03,-0.01,0.00,0.03
9.839,0.02,0.00,0.01,0.03
9.848,-0.01,0.00,0.00,0.01
9.859,0.01,-0.00,0.02,0.02
9.869,0.02,0.01,0.01,0.02
9.879,0.03,-0.01,-0.00,0.03
9.889,0.02,0.00,0.00,0.02
9.899,0.02,0.02,-0.01,0.03
9.909,0.03,0.02,-0.03,0.05
9.919,0.01,0.01,-0.03,0.03
9.929,0.04,-0.01,0.02,0.05
9.939,0.02,-0.01,0.03,0.04
9.949,0.01,-0.02,0.08,0.08
9.959,-0.00,-0.00,0.05,0.05
9.969,-0.02,0.02,0.02,0.04
9.979,-0.05,0.01,0.03,0.06
9.989,-0.02,-0.00,-0.00,0.02
9.999,0.01,-0.01,-0.15,0.15
10.009,-0.03,-0.04,-0.06,0.08
10.019,-0.03,-0.01,-0.07,0.07
10.029,-0.06,0.05,-0.07,0.11
10.039,-0.04,0.02,-0.07,0.09
10.049,-0.03,0.00,-0.13,0.13
10.059,-0.05,-0.03,-0.17,0.18
10.069,-0.04,-0.03,-0.09,0.10
10.079,-0.04,0.01,0.07,0.09
10.089,0.02,0.02,0.15,0.15
10.099,0.06,0.02,0.13,0.15
10.109,0.03,0.02,0.07,0.08
10.119,0.07,-0.04,0.00,0.08
10.129,0.12,-0.03,0.03,0.13
10.139,0.15,0.01,0.04,0.16
10.149,0.06,-0.01,0.03,0.07
10.159,0.00,-0.02,0.01,0.02
10.169,0.00,-0.03,0.03,0.04
10.179,-0.02,-0.00,0.04,0.04
10.189,-0.02,0.02,0.01,0.03
10.199,-0.01,0.04,0.03,0.05
10.209,0.00,0.01,0.02,0.02
10.219,0.00,0.00,0.02,0.02
10.229,-0.02,0.00,0.02,0.03
10.239,-0.07,0.01,-0.00,0.07
10.249,-0.06,0.03,-0.05,0.09
10.259,-0.02,0.03,-0.05,0.06
10.269,-0.01,0.01,-0.04,0.04
10.279,-0.02,-0.00,-0.07,0.07
10.289,-0.01,-0.02,0.08,0.08
10.299,-0.01,-0.02,0.13,0.14
10.309,0.01,-0.02,0.02,0.03
10.319,-0.02,-0.05,-0.09,0.11
10.329,-0.02,-0.05,-0.14,0.15
10.339,-0.03,-0.03,-0.09,0.10
10.349,0.00,-0.04,-0.03,0.05
10.359,0.03,-0.02,0.01,0.04
10.369,0.05,-0.02,-0.02,0.06
10.379,0.09,-0.00,-0.01,0.09
10.389,0.14,0.00,0.01,0.14
10.399,0.13,-0.00,0.04,0.14
10.409,0.12,0.01,0.01,0.12
10.419,0.06,0.00,0.01,0.07
10.429,0.04,-0.02,-0.02,0.05
10.439,0.00,-0.01,0.01,0.02
10.449,0.03,-0.02,0.05,0.07
10.459,0.03,-0.02,0.09,0.10
10.469,0.04,-0.02,0.08,0.10
10.479,0.02,-0.00,0.04,0.05
10.489,0.03,0.02,0.02,0.04
10.499,0.06,0.02,0.01,0.06
10.509,0.02,0.01,-0.02,0.03
10.519,-0.04,0.04,-0.01,0.06
10.529,-0.04,0.04,0.01,0.06
10.539,-0.07,0.03,0.01,0.07
10.549,-0.07,0.03,-0.01,0.08
10.559,-0.08,0.05,0.01,0.10
10.569,-0.09,0.02,0.04,0.10
10.579,-0.07,0.04,0.03,0.09
10.589,-0.05,0.02,-0.01,0.06
10.599,-0.06,0.01,-0.02,0.07
10.609,-0.07,0.00,-0.01,0.07
10.619,-0.06,0.00,-0.02,0.06
10.629,-0.02,-0.01,-0.03,0.04
10.639,0.03,0.01,-0.02,0.04
10.649,0.02,0.00,0.01,0.02
10.659,0.00,-0.01,-0.00,0.01
10.669,-0.02,0.00,-0.00,0.02
10.679,0.00,-0.00,0.01,0.02
10.689,0.01,0.00,0.01,0.02
10.699,0.00,0.01,0.00,0.01
10.709,0.02,-0.02,0.00,0.03
10.719,0.05,-0.02,0.02,0.05
10.729,0.05,-0.02,-0.01,0.06
10.739,0.01,-0.01,-0.05,0.05
10.749,0.04,-0.02,-0.07,0.09
10.759,0.00,-0.02,-0.11,0.11
10.769,0.00,-0.02,-0.09,0.09
10.779,0.00,-0.01,-0.06,0.06
10.789,0.00,-0.01,-0.00,0.01
10.799,-0.01,-0.01,0.03,0.04
10.810,-0.02,0.02,0.05,0.06
10.819,-0.04,0.03,0.04,0.07
10.829,-0.04,0.05,0.05,0.08
10.839,-0.00,0.03,0.02,0.03
10.850,0.03,-0.02,-0.14,0.15
10.859,-0.03,-0.05,-0.05,0.08
10.869,-0.08,-0.02,-0.02,0.09
10.879,-0.06,0.02,-0.04,0.08
10.889,-0.03,0.02,-0.03,0.05
10.899,0.00,-0.00,-0.13,0.13
10.910,-0.01,-0.03,-0.09,0.10
10.920,-0.01,-0.01,0.06,0.06
10.930,0.05,-0.00,0.18,0.18
10.940,0.09,0.02,0.21,0.23
10.950,0.06,0.03,0.11,0.13
10.960,0.05,0.01,0.02,0.05
10.969,0.05,-0.01,-0.00,0.05
10.980,0.07,-0.01,-0.00,0.07
10.990,0.05,0.00,0.02,0.05
11.000,0.03,0.01,0.03,0.04
11.010,0.02,0.00,0.04,0.05
11.020,0.03,0.00,0.05,0.06
11.030,0.05,0.02,0.05,0.07
11.040,0.03,0.04,0.05,0.08
11.050,0.01,0.05,0.02,0.05
11.060,-0.03,0.02,0.01,0.04
11.070,-0.04,0.01,-0.01,0.04
11.080,-0.08,0.02,-0.01,0.08
11.090,-0.09,0.02,0.00,0.09
11.100,-0.05,0.00,-0.00,0.05
11.110,-0.03,0.02,0.00,0.04
11.120,-0.00,0.01,-0.08,0.08
11.130,-0.02,-0.01,-0.02,0.03
11.140,-0.05,-0.01,0.08,0.09
11.150,-0.06,-0.01,-0.03,0.07
11.160,-0.14,-0.01,-0.11,0.18
11.170,-0.18,0.01,-0.13,0.22
11.180,-0.05,0.03,-0.05,0.08
11.190,0.08,-0.03,-0.01,0.09
11.200,0.12,-0.04,0.04,0.14
11.210,0.12,-0.04,0.08,0.15
11.220,0.12,-0.04,0.03,0.13
11.230,0.09,-0.02,0.05,0.10
11.240,0.06,-0.02,0.07,0.09
11.250,0.03,-0.03,0.06,0.08
11.260,0.03,-0.03,0.03,0.06
11.270,0.02,-0.04,-0.00,0.04
11.280,0.01,-0.02,0.01,0.02
11.290,0.01,-0.02,-0.01,0.02
11.300,0.05,-0.01,-0.02,0.06
11.310,0.07,0.04,0.01,0.08
11.320,0.05,0.06,-0.00,0.08
11.330,0.01,0.03,-0.01,0.03
11.340,-0.04,0.02,-0.02,0.05
11.350,-0.06,0.01,-0.01,0.07
11.360,-0.08,0.03,-0.00,0.09
11.370,-0.10,0.03,0.01,0.10
11.380,-0.08,0.01,0.03,0.08
11.390,-0.08,0.01,0.03,0.09
11.400,-0.04,0.01,0.03,0.05
11.410,-0.00,0.01,-0.02,0.02
11.420,-0.02,0.02,-0.03,0.04
11.430,-0.03,0.02,-0.02,0.04
11.440,-0.01,0.01,-0.03,0.04
11.450,0.01,-0.00,-0.05,0.05
11.460,-0.00,-0.00,-0.07,0.07
11.470,0.00,-0.01,-0.06,0.06
11.480,0.02,-0.03,-0.01,0.04
11.490,0.02,-0.02,-0.00,0.03
11.500,0.03,-0.01,0.01,0.03
11.510,0.02,-0.00,0.04,0.05
11.520,0.02,-0.01,0.05,0.05
11.530,0.01,-0.01,0.03,0.03
11.540,0.04,0.02,0.02,0.05
11.550,0.05,-0.00,0.01,0.05
11.560,0.07,-0.00,-0.02,0.07
11.570,0.03,0.00,-0.04,0.05
11.580,0.02,0.00,-0.05,0.05
11.590,0.01,-0.00,0.00,0.01
11.600,0.02,-0.00,0.07,0.07
11.610,0.03,-0.01,0.09,0.10
11.620,0.01,0.01,0.05,0.05
11.630,-0.01,0.03,0.05,0.06
11.640,0.00,0.01,0.05,0.06
11.650,-0.00,0.00,-0.07,0.07
11.660,0.00,-0.02,-0.16,0.16
11.670,-0.03,-0.06,-0.01,0.06
11.680,-0.09,-0.01,-0.08,0.12
11.690,-0.11,0.01,-0.03,0.11
11.700,-0.04,0.01,-0.09,0.10
11.710,-0.02,-0.01,-0.16,0.16
11.720,-0.06,-0.03,-0.11,0.13
11.730,-0.06,-0.01,0.03,0.07
11.740,-0.02,-0.01,0.10,0.11
11.750,0.05,-0.00,0.10,0.11
11.760,0.07,0.02,0.09,0.12
11.770,0.07,0.02,0.03,0.08
11.780,0.06,0.00,0.00,0.06
11.790,0.05,0.00,0.04,0.07
11.800,0.05,0.01,0.05,0.07
11.810,0.02,-0.00,0.03,0.04
11.820,0.02,0.01,0.03,0.04
11.830,0.03,0.03,0.04,0.06
11.840,0.04,0.03,0.05,0.07
11.850,0.05,0.04,0.05,0.08
11.860,0.04,0.02,0.04,0.06
11.870,0.00,0.01,0.00,0.01
11.880,-0.03,-0.02,-0.04,0.05
11.890,-0.03,-0.02,-0.08,0.09
11.900,-0.04,-0.00,-0.12,0.13
11.910,-0.05,-0.01,-0.06,0.08
11.920,-0.05,-0.00,-0.01,0.05
11.930,-0.04,0.00,-0.03,0.05
11.941,-0.06,-0.00,-0.04,0.07
11.950,-0.14,0.00,0.13,0.19
11.960,-0.10,0.00,0.12,0.15
11.970,-0.04,-0.04,-0.01,0.06
11.980,0.04,-0.06,-0.16,0.17
11.990,0.16,-0.02,-0.19,0.25
12.001,0.12,-0.00,-0.13,0.18
12.011,0.00,-0.02,-0.03,0.04
12.020,-0.09,0.02,0.05,0.11
12.030,-0.08,0.04,0.12,0.15
12.040,-0.03,0.05,0.12,0.13
12.050,0.05,0.04,0.10,0.12
12.061,0.10,0.00,0.09,0.14
12.070,0.12,-0.03,0.08,0.15
12.081,0.13,-0.04,0.04,0.14
12.091,0.10,-0.05,-0.01,0.11
12.101,0.06,-0.03,-0.03,0.08
12.111,0.05,-0.01,-0.00,0.06
12.121,0.02,0.01,-0.02,0.03
12.131,0.02,-0.01,-0.04,0.04
12.141,0.02,0.02,-0.03,0.04
12.151,0.02,0.04,-0.03,0.05
12.161,0.06,0.01,-0.03,0.07
12.171,0.03,0.01,0.01,0.03
12.181,-0.01,0.03,0.01,0.03
12.191,-0.04,0.04,-0.02,0.06
12.201,-0.06,0.06,-0.00,0.08
12.211,-0.08,0.06,0.03,0.10
12.221,-0.09,0.04,0.01,0.10
12.231,-0.06,0.01,0.03,0.07
12.241,-0.07,0.00,0.01,0.07
12.251,-0.02,-0.01,-0.03,0.03
12.261,0.07,0.00,-0.01,0.07
12.271,0.05,-0.01,-0.02,0.06
12.281,0.02,-0.02,-0.05,0.06
12.291,0.00,-0.03,-0.04,0.05
12.301,-0.01,-0.02,-0.03,0.04
12.311,0.01,-0.02,-0.02,0.03
12.321,0.01,-0.01,0.00,0.02
12.331,0.01,0.01,0.03,0.04
12.341,0.03,0.00,0.06,0.06
12.351,0.03,-0.00,0.04,0.05
12.361,0.03,-0.01,-0.01,0.03
12.371,0.02,-0.02,-0.01,0.03
12.381,0.04,-0.02,-0.02,0.05
12.391,0.06,-0.02,0.00,0.06
12.401,0.08,-0.02,0.03,0.09
12.411,0.09,-0.02,0.03,0.10
12.421,0.04,-0.00,0.01,0.05
12.431,0.02,0.02,0.03,0.04
12.441,0.02,0.02,0.06,0.07
12.451,0.03,0.01,-0.02,0.04
12.461,0.02,-0.00,-0.10,0.10
12.471,-0.00,-0.02,0.04,0.04
12.481,-0.04,0.01,-0.04,0.06
12.491,-0.12,0.03,-0.04,0.13
12.501,-0.10,0.02,-0.04,0.10
12.511,-0.09,0.02,-0.13,0.16
12.521,-0.07,-0.01,-0.12,0.14
12.531,-0.04,-0.03,-0.06,0.08
12.541,0.00,-0.01,0.07,0.08
12.551,0.04,-0.02,0.16,0.17
12.561,0.06,-0.01,0.13,0.14
12.571,0.07,-0.04,0.09,0.12
12.581,0.12,-0.05,0.04,0.13
12.591,0.02,-0.05,-0.10,0.12
12.601,0.10,-0.04,-0.07,0.13
12.611,0.05,-0.01,0.06,0.08
12.621,0.04,-0.01,0.05,0.06
12.631,0.05,-0.01,0.04,0.06
12.641,0.05,0.02,0.04,0.07
12.651,0.05,0.05,0.02,0.07
12.661,0.04,0.03,0.01,0.05
12.671,0.03,0.03,-0.00,0.05
12.681,0.06,0.02,0.02,0.07
12.691,0.09,0.01,0.04,0.09
12.701,0.00,0.00,0.02,0.02
12.711,-0.07,-0.00,-0.01,0.07
12.721,-0.08,-0.01,-0.02,0.09
12.731,-0.07,-0.01,-0.00,0.07
12.741,-0.02,0.01,-0.03,0.04
12.751,-0.07,0.01,0.02,0.07
12.761,-0.06,0.01,0.12,0.13
12.771,-0.03,0.02,0.06,0.06
12.781,-0.04,-0.01,-0.08,0.09
12.791,-0.03,-0.03,-0.15,0.15
12.801,-0.01,-0.00,-0.12,0.12
12.811,0.01,0.02,-0.03,0.04
12.821,0.05,0.02,0.03,0.06
12.831,0.06,0.01,0.03,0.07
12.841,0.10,-0.01,0.04,0.11
12.851,0.10,-0.01,0.05,0.11
12.861,0.08,-0.01,0.06,0.10
12.871,0.08,-0.02,0.08,0.12
12.881,0.08,-0.03,0.05,0.09
12.891,0.08,-0.02,0.03,0.09
12.901,0.05,-0.03,0.02,0.06
12.911,0.00,-0.01,0.00,0.01
12.921,-0.00,0.01,-0.01,0.02
12.931,-0.02,0.02,0.02,0.04
12.941,0.01,0.02,0.00,0.03
12.951,0.01,0.01,-0.02,0.03
12.961,0.01,0.02,-0.05,0.05
12.971,-0.00,0.01,-0.05,0.05
12.981,-0.01,0.01,-0.05,0.05
12.991,-0.01,0.01,-0.04,0.04
13.001,-0.01,0.01,-0.02,0.02
13.011,-0.01,0.01,-0.01,0.02
13.021,-0.03,0.01,0.02,0.04
13.031,-0.06,0.01,0.01,0.06
13.041,-0.07,0.02,0.00,0.08
13.051,-0.07,0.01,0.02,0.08
13.061,-0.05,0.00,0.04,0.07
13.071,-0.04,0.01,0.00,0.04
13.081,-0.02,0.01,-0.00,0.02
13.091,0.02,-0.00,-0.00,0.02
13.101,0.03,0.01,-0.02,0.04
13.111,0.04,0.00,-0.01,0.04
13.122,0.05,-0.00,0.04,0.06
13.131,0.05,0.00,0.03,0.06
13.142,0.00,-0.01,-0.01,0.01
13.152,0.01,0.01,-0.02,0.02
13.161,0.01,0.00,-0.03,0.03
13.171,-0.03,-0.02,-0.03,0.04
13.181,-0.00,-0.01,0.01,0.02
13.191,0.04,-0.01,0.06,0.07
13.201,0.04,0.01,0.08,0.09
13.211,0.02,0.02,0.10,0.10
13.222,0.01,0.03,0.08,0.08
13.232,-0.01,0.01,0.08,0.08
13.242,-0.00,-0.01,-0.04,0.04
13.252,-0.02,-0.05,-0.14,0.15
13.262,-0.02,-0.07,0.00,0.07
13.272,-0.05,-0.02,-0.18,0.19
13.282,-0.07,0.00,-0.14,0.15
13.292,-0.04,0.02,-0.02,0.05
13.302,-0.04,0.02,-0.11,0.12
13.312,-0.04,-0.02,-0.09,0.10
13.322,-0.04,-0.02,0.05,0.07
13.332,-0.02,0.03,0.17,0.17
13.342,0.02,0.02,0.18,0.19
13.352,0.02,0.03,0.11,0.11
13.362,0.01,0.01,0.05,0.05
13.372,0.06,-0.01,-0.02,0.06
13.382,0.09,-0.00,-0.03,0.10
13.392,0.07,0.00,-0.03,0.08
13.402,0.05,0.01,-0.01,0.06
13.412,0.03,0.02,-0.02,0.04
13.422,0.01,0.03,0.03,0.04
13.432,0.02,0.05,0.04,0.06
13.442,0.00,0.04,0.01,0.05
13.452,-0.01,0.01,0.01,0.02
13.462,-0.04,0.02,0.00,0.04
13.472,-0.04,0.01,0.03,0.05
13.482,-0.04,0.02,0.04,0.06
13.492,-0.05,-0.01,0.02,0.06
13.502,-0.06,-0.01,-0.01,0.06
13.512,-0.05,-0.02,-0.03,0.06
13.522,0.05,0.01,-0.03,0.06
13.532,-0.01,-0.01,-0.03,0.03
13.542,-0.06,-0.02,0.07,0.10
13.552,-0.02,-0.00,0.03,0.04
13.562,-0.03,-0.01,-0.05,0.06
13.572,-0.04,-0.03,-0.10,0.11
13.582,-0.03,-0.03,-0.09,0.10
13.592,0.01,-0.04,0.00,0.04
13.602,0.03,-0.02,0.06,0.07
13.612,0.03,-0.02,0.05,0.06
13.622,0.05,-0.02,0.04,0.06
13.632,0.05,-0.02,0.05,0.08
13.642,0.07,-0.01,0.07,0.10
13.652,0.08,-0.01,0.05,0.10
13.662,0.05,-0.02,0.05,0.07
13.672,0.03,-0.02,0.03,0.05
13.682,0.00,-0.01,0.02,0.02
13.692,0.04,0.03,0.04,0.06
13.702,0.05,0.04,0.03,0.07
13.712,0.04,0.05,0.01,0.06
13.722,0.01,0.04,0.02,0.05
13.732,-0.01,0.03,-0.01,0.04
13.742,-0.02,0.03,-0.05,0.06
13.752,-0.06,0.03,-0.05,0.08
13.762,-0.12,0.04,-0.05,0.13
13.772,-0.12,0.01,-0.04,0.13
13.782,-0.09,0.01,-0.02,0.10
13.792,-0.06,0.02,-0.03,0.08
13.802,-0.07,0.03,-0.03,0.08
13.812,-0.06,0.04,-0.05,0.08
13.822,-0.04,0.03,-0.02,0.05
13.832,-0.05,0.01,-0.02,0.06
13.842,-0.07,0.01,-0.02,0.08
13.852,-0.03,0.00,-0.01,0.03
13.862,-0.02,-0.01,-0.00,0.03
13.872,-0.02,-0.01,-0.01,0.03
13.882,0.01,-0.01,0.01,0.02
13.892,0.02,-0.01,0.04,0.04
13.902,0.01,-0.01,-0.03,0.04
13.912,0.02,-0.03,-0.06,0.07
13.922,0.00,-0.02,-0.06,0.06
13.932,0.03,-0.02,-0.00,0.03
13.942,0.05,-0.02,0.04,0.07
13.952,0.06,0.01,0.04,0.07
13.962,0.05,0.03,0.01,0.05
13.972,0.02,0.01,0.02,0.03
13.982,0.01,0.01,0.07,0.07
13.992,-0.00,0.00,0.03,0.03
14.002,0.01,-0.01,-0.11,0.11
14.012,-0.02,-0.03,-0.01,0.04
14.022,-0.06,-0.01,-0.20,0.21
14.032,-0.11,0.03,-0.10,0.15
14.042,-0.07,-0.01,-0.02,0.08
14.052,-0.06,-0.00,-0.14,0.15
14.062,-0.08,-0.01,-0.12,0.15
14.072,-0.09,-0.01,0.04,0.10
14.082,-0.05,0.01,0.18,0.19
14.092,0.02,0.02,0.24,0.24
14.102,0.03,0.01,0.15,0.15
14.112,0.05,0.00,0.04,0.06
14.122,0.08,-0.01,-0.03,0.08
14.132,0.06,-0.01,-0.03,0.07
14.142,0.07,-0.00,0.00,0.07
14.152,0.07,0.01,-0.00,0.07
14.162,0.07,0.00,-0.04,0.08
14.172,0.06,0.01,-0.03,0.07
14.182,0.02,0.03,0.01,0.03
14.192,0.03,0.06,0.02,0.07
14.202,0.00,0.04,0.02,0.04
14.212,-0.03,0.02,0.04,0.05
14.222,-0.06,0.01,0.03,0.07
14.232,-0.08,0.01,0.02,0.09
14.242,-0.10,0.00,0.01,0.10
14.252,-0.08,-0.01,-0.01,0.08
14.263,-0.08,-0.01,-0.02,0.08
14.273,-0.04,0.01,-0.02,0.04
14.282,-0.02,-0.01,-0.05,0.06
14.292,-0.05,-0.03,0.08,0.09
14.303,-0.01,-0.02,0.13,0.13
14.312,-0.01,-0.02,0.00,0.03
14.323,-0.02,-0.06,-0.11,0.13
14.333,-0.06,-0.02,-0.17,0.18
14.343,-0.06,-0.03,-0.12,0.13
14.353,-0.03,-0.04,-0.01,0.05
14.363,0.00,-0.00,0.03,0.03
14.373,0.01,-0.00,0.04,0.04
14.383,0.05,-0.02,0.04,0.07
14.393,0.06,-0.01,0.07,0.09
14.403,0.06,-0.02,0.08,0.11
14.413,0.07,-0.03,0.08,0.11
14.423,0.05,-0.05,0.04,0.09
14.433,0.02,-0.06,0.03,0.07
14.443,0.01,-0.02,-0.01,0.02
14.453,0.04,-0.01,-0.01,0.05
14.463,0.06,0.03,-0.00,0.06
14.473,0.04,0.03,0.01,0.06
14.483,0.05,0.03,-0.00,0.06
14.493,0.02,0.04,-0.01,0.04
14.503,-0.01,0.04,-0.01,0.05
14.513,-0.06,0.02,-0.00,0.07
14.523,-0.07,0.02,-0.00,0.07
14.533,-0.07,0.03,-0.01,0.08
14.543,-0.05,0.03,-0.01,0.06
14.553,-0.04,0.05,-0.01,0.06
14.563,-0.04,0.04,-0.03,0.06
14.573,-0.04,0.03,-0.02,0.05
14.583,-0.03,0.01,0.01,0.03
14.593,-0.02,0.01,0.02,0.02
14.603,-0.00,-0.00,-0.01,0.01
14.613,-0.02,-0.01,0.01,0.02
14.623,0.01,-0.02,0.00,0.02
14.633,0.04,-0.01,0.03,0.05
14.643,0.02,-0.02,0.02,0.04
14.653,0.02,-0.02,0.01,0.03
14.663,0.03,-0.01,0.01,0.03
14.673,0.02,-0.01,-0.02,0.03
14.683,0.02,-0.01,-0.04,0.04
14.693,0.00,0.01,-0.04,0.04
14.703,-0.01,-0.01,-0.02,0.03
14.713,0.00,-0.02,0.03,0.04
14.723,-0.01,0.02,0.08,0.09
14.733,-0.00,0.04,0.04,0.06
14.743,0.02,0.02,0.05,0.05
14.753,-0.01,0.02,0.03,0.04
14.763,-0.01,0.02,0.05,0.06
14.773,0.02,0.00,-0.03,0.04
14.783,0.04,-0.03,-0.06,0.08
14.793,0.01,-0.06,0.08,0.10
14.803,-0.03,-0.03,-0.08,0.09
14.813,-0.04,-0.01,-0.10,0.11
14.823,-0.04,-0.01,-0.10,0.10
14.833,-0.06,0.00,-0.16,0.18
14.843,-0.07,-0.02,-0.16,0.17
14.853,-0.06,-0.01,-0.10,0.12
14.863,-0.05,-0.00,0.02,0.05
14.873,0.03,0.00,0.11,0.12
14.883,0.06,0.03,0.14,0.15
14.893,0.06,0.01,0.10,0.11
14.903,0.05,-0.01,0.03,0.06
14.913,0.06,-0.01,-0.02,0.06
14.923,0.04,0.01,0.00,0.04
14.933,0.05,0.00,0.01,0.05
14.943,0.05,0.00,0.04,0.07
14.953,0.03,0.01,0.03,0.04
14.963,0.03,0.03,0.03,0.06
14.973,0.04,0.04,0.01,0.06
14.983,0.02,0.04,0.02,0.05
14.993,0.01,0.02,0.03,0.04
15.003,-0.02,0.02,0.01,0.03
15.013,-0.04,0.01,0.01,0.04
15.023,-0.06,-0.00,0.00,0.06
15.033,-0.06,-0.02,-0.01,0.07
15.043,-0.04,-0.00,-0.02,0.05
15.053,-0.04,-0.02,-0.03,0.05
15.063,-0.00,-0.00,-0.06,0.06
15.073,0.00,-0.01,-0.01,0.01
15.083,0.00,-0.02,0.13,0.13
15.093,0.00,-0.02,0.06,0.06
15.103,0.00,-0.01,-0.06,0.06
15.113,0.01,-0.02,-0.14,0.14
15.123,-0.07,-0.00,-0.08,0.11
15.133,-0.05,0.00,-0.02,0.05
15.143,0.02,0.00,0.01,0.02
15.153,0.06,-0.00,0.01,0.06
15.163,0.07,0.01,0.03,0.08
15.173,0.07,0.01,0.04,0.08
15.183,0.07,-0.00,0.08,0.11
15.193,0.04,-0.02,0.09,0.10
15.203,0.03,-0.03,0.06,0.08
15.213,0.02,-0.01,0.07,0.07
15.223,-0.01,-0.02,0.03,0.03
15.233,0.00,-0.02,-0.01,0.02
15.243,0.01,-0.02,0.00,0.02
15.253,0.01,-0.02,0.02,0.03
15.263,0.02,0.01,0.02,0.03
15.273,0.03,0.02,-0.03,0.05
15.283,0.01,0.02,-0.06,0.06
15.293,-0.02,0.02,-0.04,0.05
15.303,-0.06,0.03,-0.01,0.06
15.313,-0.07,0.02,0.01,0.07
15.323,-0.06,0.03,-0.01,0.07
15.333,-0.03,0.05,-0.02,0.06
15.343,-0.02,0.05,-0.02,0.06
15.353,-0.02,0.02,-0.02,0.03
15.363,-0.01,0.01,-0.00,0.02
15.373,0.00,0.01,0.02,0.03
15.383,0.03,0.01,0.01,0.04
15.393,0.00,0.00,0.00,0.01
15.403,0.01,0.01,-0.03,0.04
15.413,0.00,-0.01,-0.07,0.07
15.423,0.01,-0.02,-0.04,0.04
15.433,0.02,-0.01,0.01,0.03
15.443,0.04,-0.01,0.02,0.04
15.453,0.05,-0.01,0.02,0.05
15.463,0.03,-0.01,0.01,0.04
15.473,0.03,-0.02,0.01,0.04
15.484,0.04,-0.01,0.00,0.04
15.493,0.05,-0.02,0.01,0.05
15.503,0.04,-0.01,0.01,0.04
15.513,0.02,-0.01,0.00,0.02
15.523,0.02,0.01,0.02,0.03
15.534,0.01,-0.01,-0.00,0.01
15.544,0.01,0.01,-0.01,0.02
15.554,0.01,0.00,-0.02,0.03
15.564,-0.03,-0.00,-0.04,0.05
15.574,-0.02,-0.02,-0.02,0.04
15.584,0.00,-0.03,0.04,0.05
15.594,0.00,-0.01,0.07,0.07
15.604,-0.02,0.02,0.03,0.04
15.614,0.01,0.03,0.03,0.04
15.624,0.03,0.03,0.07,0.08
15.634,0.01,0.02,-0.02,0.03
15.644,-0.01,-0.00,-0.08,0.08
15.654,-0.04,-0.04,0.05,0.07
15.664,-0.05,0.01,-0.06,0.08
15.674,-0.03,-0.00,-0.06,0.07
15.684,-0.01,-0.01,-0.10,0.10
15.694,-0.04,-0.01,-0.13,0.13
15.704,-0.05,-0.02,-0.13,0.14
15.714,-0.06,-0.02,-0.10,0.11
15.724,-0.04,-0.00,0.04,0.06
15.734,0.05,0.01,0.15,0.16
15.744,0.07,0.02,0.17,0.18
15.754,0.07,-0.01,0.12,0.14
15.764,0.10,-0.03,0.05,0.11
15.774,0.10,-0.02,0.02,0.10
15.784,0.08,-0.00,0.00,0.08
15.794,0.07,-0.00,-0.02,0.08
15.804,0.07,-0.02,-0.03,0.08
15.814,0.06,0.02,-0.00,0.06
15.824,0.05,0.04,0.00,0.06
15.834,0.02,0.05,-0.00,0.06
15.844,-0.01,0.02,-0.02,0.03
15.854,-0.04,0.04,0.01,0.06
15.864,-0.09,0.03,0.01,0.09
15.874,-0.07,0.00,0.02,0.08
15.884,-0.06,-0.01,0.01,0.07
15.894,-0.06,-0.02,0.01,0.07
15.904,-0.04,-0.01,0.02,0.05
15.914,-0.03,-0.01,0.02,0.03
15.924,-0.02,-0.00,-0.00,0.02
15.934,-0.01,-0.03,0.03,0.04
15.944,0.01,-0.02,0.15,0.15
15.954,-0.00,-0.04,0.04,0.06
15.964,-0.01,-0.04,-0.07,0.08
15.974,-0.00,-0.04,-0.12,0.13
15.984,-0.04,-0.02,-0.11,0.12
15.994,-0.02,-0.00,-0.04,0.04
16.004,0.01,-0.01,0.01,0.02
16.014,0.01,-0.01,0.02,0.03
16.024,0.04,-0.01,0.04,0.06
16.034,0.03,0.00,0.05,0.06
16.044,0.04,0.01,0.08,0.09
16.054,0.02,-0.02,0.08,0.08
16.064,-0.00,-0.05,0.05,0.07
16.074,0.04,-0.02,0.04,0.06
16.084,0.10,0.03,0.04,0.12
16.094,0.13,0.03,0.04,0.14
16.104,0.10,0.01,0.03,0.11
16.114,0.07,0.03,0.03,0.08
16.124,0.05,0.04,0.01,0.07
16.134,0.02,0.02,-0.02,0.03
16.144,-0.04,0.03,-0.05,0.07
16.154,-0.05,0.01,-0.05,0.07
16.164,-0.10,0.03,-0.05,0.11
16.174,-0.11,0.01,-0.05,0.13
16.184,-0.12,0.01,-0.03,0.12
16.194,-0.10,0.02,-0.00,0.10
16.204,-0.05,0.04,-0.01,0.07
16.214,-0.04,0.04,0.00,0.06
16.224,-0.03,0.04,0.01,0.05
16.234,-0.03,0.03,0.00,0.05
16.244,-0.03,0.01,0.00,0.03
16.254,-0.02,0.01,-0.01,0.03
16.264,0.01,0.00,-0.03,0.03
16.274,0.03,-0.01,-0.03,0.04
16.284,0.03,-0.01,0.02,0.04
16.294,0.03,-0.02,0.01,0.04
16.304,0.05,-0.02,0.01,0.05
16.314,0.03,-0.02,-0.01,0.04
16.324,0.04,-0.01,-0.00,0.04
16.334,0.04,0.00,0.01,0.04
16.344,0.03,-0.02,0.00,0.03
16.354,0.04,-0.01,0.01,0.04
16.364,0.04,-0.01,0.02,0.04
16.374,0.05,0.00,0.03,0.06
16.384,0.04,-0.02,0.01,0.05
16.394,0.02,-0.05,-0.01,0.05
16.404,-0.00,-0.03,-0.03,0.05
16.414,0.01,-0.00,-0.03,0.03
16.424,0.01,0.01,-0.03,0.03
16.434,-0.01,-0.00,-0.03,0.04
16.444,0.00,0.00,0.03,0.03
16.454,0.02,0.01,0.04,0.05
16.464,0.04,0.01,0.01,0.05
16.474,0.03,0.02,0.04,0.05
16.484,-0.06,0.01,0.02,0.07
16.494,-0.11,0.00,0.01,0.11
16.504,-0.11,-0.00,-0.07,0.13
16.514,-0.08,-0.01,-0.14,0.16
16.524,-0.09,-0.03,-0.01,0.09
16.534,-0.09,-0.00,-0.13,0.15
16.544,-0.05,0.01,-0.04,0.07
16.554,0.00,0.04,-0.05,0.06
16.564,0.03,0.03,-0.13,0.13
16.574,0.00,0.01,-0.05,0.05
16.584,0.00,-0.00,0.06,0.06
16.594,0.07,0.00,0.14,0.16
16.604,0.10,0.02,0.17,0.20
16.614,0.06,0.01,0.09,0.11
16.624,0.06,-0.01,0.01,0.06
16.634,0.06,-0.03,-0.02,0.07
16.645,0.09,-0.01,-0.03,0.09
16.655,0.07,-0.01,0.00,0.07
16.664,0.06,-0.02,0.01,0.06
16.675,0.05,0.01,0.01,0.05
16.685,-0.01,0.02,0.04,0.05
16.695,-0.03,0.02,0.05,0.06
16.705,-0.02,0.03,0.04,0.05
16.715,-0.03,0.02,0.01,0.04
16.725,-0.05,-0.01,-0.00,0.05
16.735,-0.06,-0.00,0.00,0.06
16.745,-0.06,0.00,-0.00,0.06
16.755,-0.05,-0.01,0.01,0.05
16.765,-0.07,0.01,0.01,0.07
16.775,-0.08,0.01,0.01,0.08
16.785,-0.08,0.01,-0.05,0.09
16.795,-0.05,0.00,-0.04,0.07
16.805,-0.03,-0.01,0.12,0.12
16.815,0.01,0.01,0.02,0.03
16.825,-0.01,0.00,-0.08,0.08
16.835,-0.05,-0.02,-0.12,0.13
16.845,-0.04,0.02,-0.07,0.08
16.855,-0.02,0.01,-0.03,0.04
16.865,0.02,-0.01,0.01,0.02
16.875,0.02,0.02,0.01,0.03
16.885,0.02,0.01,-0.00,0.03
16.895,0.05,-0.01,0.02,0.06
16.905,0.09,-0.00,0.04,0.10
16.915,0.08,-0.01,0.06,0.10
16.925,0.07,-0.01,0.02,0.07
16.935,0.05,-0.04,0.01,0.07
16.945,0.03,-0.01,0.01,0.03
16.955,0.04,0.00,0.01,0.05
16.965,0.06,0.01,-0.01,0.06
16.975,0.06,0.03,0.01,0.07
16.985,0.03,0.03,0.01,0.04
16.995,0.00,0.03,-0.01,0.04
17.005,-0.02,0.04,-0.04,0.06
17.015,-0.06,0.03,-0.05,0.08
17.025,-0.10,0.03,-0.05,0.11
17.035,-0.10,0.03,-0.05,0.12
17.045,-0.08,0.02,-0.03,0.09
17.055,-0.05,0.03,0.00,0.06
17.065,-0.06,0.03,-0.01,0.07
17.075,-0.05,0.02,-0.00,0.05
17.085,-0.04,0.03,0.02,0.05
17.095,-0.05,0.01,0.01,0.06
17.105,-0.03,0.01,0.02,0.03
17.115,-0.03,0.00,-0.01,0.03
17.125,-0.01,-0.02,-0.02,0.03
17.135,-0.00,-0.02,-0.03,0.04
17.145,0.00,-0.03,-0.03,0.04
17.155,0.01,-0.02,-0.01,0.03
17.165,0.03,-0.03,0.01,0.04
17.175,0.04,-0.02,0.01,0.05
17.185,0.03,-0.01,0.01,0.04
17.195,0.04,-0.00,0.01,0.05
17.205,0.04,-0.01,0.00,0.04
17.215,0.01,-0.02,-0.01,0.02
17.225,0.00,0.00,-0.03,0.03
17.235,0.02,-0.01,-0.06,0.06
17.245,0.03,0.00,-0.06,0.07
17.255,0.01,0.01,-0.01,0.02
17.265,0.01,-0.01,0.05,0.05
17.275,0.03,0.00,0.09,0.10
17.285,0.02,0.01,0.07,0.07
17.295,0.01,0.02,0.05,0.06
17.305,-0.01,0.02,0.05,0.05
17.315,-0.01,0.02,0.02,0.03
17.325,-0.00,0.01,-0.09,0.09
17.335,-0.05,-0.04,-0.09,0.11
17.345,-0.08,-0.06,0.00,0.10
17.355,-0.07,0.00,-0.13,0.15
17.365,-0.04,-0.01,-0.11,0.12
17.375,0.01,-0.00,-0.19,0.19
17.385,-0.01,0.02,-0.17,0.17
17.395,-0.04,0.00,-0.12,0.12
17.405,-0.08,0.00,0.03,0.08
17.415,-0.02,0.01,0.15,0.15
17.425,0.04,0.04,0.19,0.20
17.435,0.03,0.05,0.12,0.14
17.445,0.07,0.01,0.05,0.09
17.455,0.07,-0.01,0.01,0.07
17.465,0.08,0.01,-0.01,0.08
17.475,0.09,0.03,-0.03,0.10
17.485,0.08,0.02,0.01,0.09
17.495,0.07,0.00,0.03,0.08
17.505,0.05,0.03,0.06,0.08
17.515,-0.01,0.04,0.04,0.06
17.525,0.02,0.03,0.02,0.04
17.535,0.03,0.02,0.04,0.05
17.545,-0.04,0.00,0.01,0.04
17.555,-0.05,-0.00,0.02,0.06
17.565,-0.06,-0.02,0.02,0.07
17.575,-0.06,-0.06,0.00,0.08
17.585,-0.11,-0.04,-0.02,0.12
17.595,-0.07,-0.05,-0.04,0.09
17.605,-0.02,-0.01,-0.03,0.04
17.615,-0.00,0.02,-0.07,0.07
17.625,-0.01,-0.01,0.03,0.03
17.635,0.00,-0.01,0.13,0.13
17.645,0.01,-0.00,0.03,0.03
17.655,-0.01,-0.00,-0.08,0.08
17.665,-0.03,-0.01,-0.16,0.17
17.675,-0.05,0.01,-0.13,0.14
17.685,-0.02,-0.00,-0.00,0.02
17.695,0.00,0.01,0.05,0.05
17.705,0.03,0.00,0.06,0.07
17.715,0.07,-0.01,0.03,0.08
17.725,0.07,-0.01,0.03,0.08
17.735,0.04,0.00,0.07,0.08
17.746,0.04,-0.01,0.06,0.07
17.756,0.07,-0.01,0.05,0.09
17.766,0.08,-0.04,0.03,0.09
17.776,0.05,-0.02,-0.03,0.06
17.785,0.04,0.02,-0.01,0.04
17.795,0.01,0.02,0.05,0.05
17.806,0.04,0.03,0.04,0.06
17.816,0.03,0.02,-0.00,0.04
17.826,-0.01,0.03,-0.02,0.03
17.835,-0.01,0.03,-0.02,0.04
17.846,-0.02,0.03,-0.01,0.04
17.856,-0.03,0.03,-0.00,0.04
17.866,-0.05,0.01,-0.02,0.06
17.876,-0.03,-0.01,-0.01,0.03
17.885,-0.02,0.02,-0.01,0.04
17.896,-0.03,0.02,-0.02,0.04
17.906,-0.00,0.02,-0.02,0.03
17.916,-0.02,0.02,-0.02,0.03
17.926,-0.02,-0.01,-0.00,0.02
17.936,-0.01,0.00,0.00,0.01
17.946,0.00,0.01,0.02,0.02
17.956,-0.00,-0.02,-0.00,0.02
17.966,0.01,-0.01,-0.02,0.03
17.976,0.02,-0.02,-0.03,0.04
17.986,0.03,-0.01,0.01,0.03
17.996,0.03,-0.01,-0.00,0.03
18.006,0.06,-0.01,-0.01,0.06
18.016,0.05,0.00,-0.02,0.05
18.026,0.03,0.01,0.02,0.04
18.036,0.04,0.02,0.01,0.05
18.046,0.03,0.02,0.02,0.04
18.056,-0.01,0.03,0.04,0.06
18.066,0.01,0.03,0.06,0.07
18.076,0.03,0.02,0.02,0.04
18.086,0.02,0.01,-0.01,0.02
18.096,-0.01,0.00,-0.02,0.02
18.106,0.01,-0.01,-0.02,0.02
18.116,0.01,-0.01,0.01,0.02
18.126,0.05,-0.02,0.05,0.07
18.136,0.04,-0.01,0.04,0.06
18.146,0.03,-0.01,0.02,0.03
18.156,-0.02,-0.01,0.02,0.03
18.166,-0.04,-0.02,0.03,0.06
18.176,0.01,-0.03,-0.07,0.08
18.186,-0.02,-0.06,-0.02,0.07
18.196,-0.04,-0.05,0.07,0.09
18.206,-0.06,-0.01,-0.09,0.10
18.216,-0.04,-0.02,-0.07,0.08
18.226,-0.05,-0.01,-0.15,0.16
18.236,-0.06,-0.01,-0.13,0.15
18.246,-0.05,-0.03,-0.12,0.14
18.256,-0.06,0.00,-0.05,0.08
18.266,-0.02,0.01,0.09,0.09
18.276,0.04,0.02,0.15,0.15
18.286,0.06,0.03,0.14,0.16
18.296,0.07,0.01,0.07,0.10
18.306,0.12,-0.00,-0.00,0.12
18.316,0.10,0.00,-0.05,0.11
18.326,0.10,-0.01,-0.07,0.12
18.336,0.12,0.00,-0.06,0.13
18.346,0.13,0.01,-0.04,0.14
18.356,0.13,0.04,0.02,0.14
18.366,0.13,0.03,0.05,0.14
18.376,0.12,0.04,0.06,0.14
18.386,0.05,0.05,0.12,0.14
18.396,-0.03,0.05,0.13,0.14
18.406,-0.08,0.03,0.08,0.11
18.416,-0.10,0.01,0.01,0.10
18.426,-0.10,0.00,-0.04,0.11
18.436,-0.09,-0.03,-0.05,0.11
18.446,-0.05,-0.04,-0.05,0.09
18.456,-0.00,-0.02,-0.02,0.03
18.466,-0.01,-0.01,-0.03,0.04
18.476,-0.03,-0.02,-0.01,0.03
18.486,-0.04,-0.04,0.14,0.15
18.496,-0.04,-0.04,0.08,0.09
18.506,-0.05,-0.04,-0.04,0.08
18.516,-0.06,-0.04,-0.16,0.17
18.526,-0.05,-0.01,-0.14,0.14
18.536,-0.03,0.01,-0.03,0.04
18.546,-0.01,-0.01,-0.01,0.01
18.556,-0.02,-0.02,0.04,0.05
18.566,0.01,-0.02,0.07,0.08
18.576,0.05,-0.02,0.10,0.11
18.586,0.07,0.01,0.09,0.12
18.596,0.10,0.01,0.10,0.14
18.606,0.10,-0.00,0.04,0.11
18.616,0.09,0.01,0.03,0.09
18.626,0.05,-0.01,0.02,0.06
18.636,0.06,0.02,0.00,0.06
18.646,0.04,0.02,0.01,0.05
18.656,0.06,0.01,0.01,0.06
18.666,0.05,0.02,-0.00,0.05
18.676,0.03,0.02,-0.03,0.05
18.686,0.01,0.01,-0.08,0.08
18.696,-0.04,0.01,-0.07,0.08
18.706,-0.05,0.01,-0.02,0.05
18.716,-0.05,0.00,0.00,0.05
18.726,-0.04,0.02,-0.03,0.06
18.736,-0.03,0.03,-0.02,0.05
18.746,-0.04,0.03,0.01,0.05
18.756,-0.05,0.01,0.03,0.06
18.766,-0.05,0.04,0.01,0.07
18.776,-0.04,0.03,0.01,0.05
18.786,-0.03,-0.01,0.01,0.03
18.796,-0.03,0.00,-0.01,0.04
18.806,-0.02,-0.00,-0.01,0.03
18.816,0.01,-0.02,-0.02,0.03
18.826,0.02,-0.03,-0.02,0.04
18.836,0.03,-0.03,0.00,0.04
18.846,0.05,-0.01,0.00,0.05
18.856,0.05,-0.01,0.00,0.05
18.866,0.03,-0.02,-0.00,0.04
18.876,0.02,-0.02,0.02,0.04
18.887,0.01,-0.03,0.00,0.03
18.896,0.02,-0.02,-0.02,0.04
18.907,0.01,0.00,0.01,0.02
18.916,0.02,-0.01,0.02,0.03
18.927,0.01,-0.01,0.03,0.03
18.937,0.02,-0.00,0.02,0.03
18.947,-0.00,-0.01,-0.00,0.01
18.957,-0.01,0.00,-0.02,0.02
18.967,-0.02,0.00,-0.04,0.04
18.977,-0.02,-0.00,-0.04,0.05
18.987,-0.05,0.01,-0.05,0.08
18.997,-0.03,0.00,-0.01,0.03
19.007,-0.05,-0.01,0.06,0.08
19.017,-0.02,0.01,0.08,0.09
19.027,-0.01,0.03,0.05,0.06
19.037,-0.02,0.03,0.04,0.06
19.047,-0.01,0.03,0.04,0.05
19.057,-0.02,0.03,0.02,0.04
19.067,0.02,0.01,-0.15,0.15
19.077,-0.00,-0.03,-0.07,0.08
19.087,-0.03,-0.02,-0.02,0.04
19.097,-0.03,0.03,-0.11,0.12
19.107,-0.01,0.02,-0.09,0.09
19.117,-0.01,0.02,-0.12,0.12
19.127,-0.05,0.00,-0.13,0.14
19.137,-0.04,-0.01,-0.04,0.06
19.147,-0.03,-0.01,0.08,0.09
19.157,0.03,-0.02,0.15,0.16
19.167,0.07,-0.00,0.15,0.17
19.177,0.07,0.01,0.07,0.10
19.187,0.07,-0.03,-0.01,0.08
19.197,0.09,-0.02,-0.02,0.10
19.207,0.11,-0.02,0.01,0.12
19.217,0.09,0.00,-0.01,0.09
19.227,0.06,0.00,0.00,0.06
19.237,0.01,0.00,0.02,0.02
19.247,-0.01,0.03,0.04,0.05
19.257,-0.05,0.05,0.02,0.07
19.267,-0.08,0.06,0.03,0.11
19.277,-0.12,0.07,0.01,0.14
19.287,-0.10,0.04,0.02,0.11
19.297,-0.12,0.03,0.03,0.13
19.307,-0.08,0.02,-0.01,0.08
19.317,-0.03,0.00,-0.02,0.04
19.327,-0.10,0.02,-0.06,0.12
19.337,-0.10,0.07,-0.03,0.12
19.347,0.03,0.03,-0.04,0.06
19.357,0.05,-0.04,-0.04,0.07
19.367,0.06,-0.06,0.12,0.14
19.377,0.10,-0.03,0.09,0.14
19.387,0.09,-0.01,-0.01,0.09
19.397,0.05,-0.01,-0.10,0.11
19.407,-0.05,-0.04,-0.12,0.13
19.417,-0.06,-0.06,-0.10,0.13
19.427,-0.03,-0.07,-0.01,0.08
19.437,0.04,-0.04,0.03,0.07
19.447,0.09,0.00,0.04,0.10
19.457,0.06,0.01,0.05,0.08
19.467,0.07,0.01,0.06,0.09
19.477,0.09,0.00,0.07,0.11
19.487,0.06,-0.04,0.04,0.08
19.497,0.07,-0.03,0.06,0.10
19.507,0.07,-0.01,0.06,0.09
19.517,0.07,-0.00,0.02,0.07
19.527,0.07,-0.04,0.02,0.09
19.537,0.05,-0.02,0.03,0.07
19.547,0.05,0.03,0.04,0.08
19.557,0.04,0.04,0.01,0.06
19.567,0.01,0.01,-0.02,0.03
19.577,-0.02,0.00,-0.08,0.08
19.587,-0.03,0.01,-0.07,0.08
19.597,-0.02,-0.01,0.00,0.03
19.607,-0.09,0.04,0.01,0.09
19.617,-0.12,0.04,0.01,0.13
19.627,-0.11,0.03,0.02,0.11
19.637,-0.05,0.01,0.00,0.06
19.647,-0.02,0.00,0.02,0.03
19.657,-0.02,0.00,0.01,0.02
19.667,0.01,-0.02,0.01,0.02
19.677,-0.01,-0.01,-0.02,0.03
19.687,-0.02,-0.02,-0.04,0.05
19.697,-0.04,-0.01,-0.01,0.04
19.707,-0.04,-0.00,-0.01,0.05
19.717,-0.02,0.01,-0.01,0.02
19.727,-0.05,0.00,-0.02,0.05
19.737,-0.07,-0.00,-0.01,0.07
19.747,-0.04,0.01,-0.02,0.04
19.757,-0.04,0.02,-0.01,0.04
19.767,-0.00,0.03,0.01,0.03
19.777,0.02,-0.00,0.02,0.03
19.787,0.03,-0.01,0.02,0.04
19.797,0.06,-0.01,0.03,0.07
19.807,0.05,-0.02,0.03,0.06
19.817,0.03,-0.00,0.04,0.05
19.827,0.03,-0.02,0.03,0.05
19.837,0.03,0.01,0.00,0.03
19.847,0.02,0.01,0.01,0.03
19.857,0.03,-0.01,0.04,0.05
19.867,0.06,0.00,0.09,0.11
19.877,0.09,0.03,0.14,0.17
19.887,0.08,0.07,0.12,0.16
19.897,0.06,0.06,0.10,0.13
19.907,0.05,0.04,0.13,0.14
19.917,0.05,0.02,0.12,0.13
19.927,0.07,-0.02,-0.11,0.13
19.937,0.06,-0.06,-0.14,0.17
19.947,-0.01,-0.07,-0.01,0.07
19.957,-0.06,-0.03,-0.14,0.16
19.967,-0.09,-0.03,-0.15,0.18
19.977,-0.10,-0.03,-0.22,0.24
19.987,-0.11,-0.01,-0.24,0.26
19.997,-0.11,-0.01,-0.20,0.23
20.008,-0.11,0.01,-0.04,0.12
20.017,-0.07,0.01,0.09,0.12
20.028,-0.02,0.02,0.13,0.14
20.037,0.00,0.03,0.05,0.06
20.048,0.03,0.01,0.01,0.04
20.058,0.02,-0.01,0.00,0.02
20.068,0.01,-0.01,0.01,0.02
20.078,0.03,-0.01,0.01,0.04
20.088,0.05,-0.02,0.00,0.06
20.098,0.04,-0.02,-0.01,0.04
20.108,0.03,-0.01,-0.01,0.03
20.117,0.03,0.00,0.03,0.05
20.128,-0.01,0.02,0.03,0.03
20.138,-0.02,0.02,0.02,0.04
20.148,-0.05,0.00,0.00,0.05
20.158,-0.04,0.01,0.00,0.05
20.168,-0.02,0.01,-0.01,0.03
20.178,-0.04,0.01,0.02,0.05
20.188,-0.06,-0.00,0.01,0.06
20.198,-0.05,0.01,0.02,0.05
20.208,-0.04,0.01,0.01,0.04
20.218,-0.02,-0.02,-0.05,0.06
20.228,-0.02,-0.04,-0.00,0.05
20.238,-0.01,-0.04,0.12,0.12
20.248,-0.01,-0.02,0.03,0.04
20.258,-0.03,-0.02,-0.10,0.11
20.268,-0.05,-0.01,-0.15,0.15
20.278,-0.02,0.01,-0.11,0.11
20.288,-0.01,0.01,-0.00,0.02
20.298,0.02,0.00,0.05,0.05
20.308,0.05,-0.00,0.03,0.06
20.318,0.06,-0.02,0.01,0.06
20.328,0.07,-0.02,0.03,0.08
20.338,0.11,0.00,0.07,0.13
20.348,0.10,-0.01,0.08,0.13
20.358,0.05,-0.01,0.07,0.09
20.368,0.04,-0.00,0.07,0.08
20.378,0.08,0.00,0.05,0.09
20.388,0.10,-0.00,-0.02,0.10
20.398,0.09,0.01,-0.00,0.09
20.408,0.06,0.02,0.05,0.08
20.418,0.07,0.03,0.05,0.09
20.428,0.04,0.02,-0.01,0.05
20.438,0.03,0.03,-0.07,0.08
20.448,-0.01,0.02,-0.09,0.09
20.458,-0.05,0.05,-0.05,0.09
20.468,-0.06,0.05,-0.05,0.09
20.478,-0.04,-0.00,-0.02,0.05
20.488,0.03,0.01,0.04,0.05
20.498,0.03,-0.01,0.04,0.05
20.508,-0.11,-0.34,0.05,0.36
20.518,0.14,-0.05,-0.01,0.15
20.528,0.21,0.32,0.05,0.38
20.538,0.18,0.28,0.13,0.36
20.548,0.16,0.07,0.13,0.22
20.558,0.09,-0.10,0.12,0.18
20.568,0.14,-0.26,0.04,0.30
20.578,0.20,-0.34,0.09,0.40
20.588,0.28,-0.33,0.18,0.47
20.598,0.41,-0.22,0.22,0.51
20.608,0.48,0.02,0.10,0.49
20.618,0.24,0.16,-0.12,0.31
20.628,-0.03,0.08,-0.40,0.41
20.638,-0.24,-0.07,-0.55,0.60
20.648,-0.50,-0.13,-0.48,0.71
20.658,-0.65,-0.02,-0.13,0.66
20.668,-0.59,0.19,0.11,0.63
20.678,-0.48,0.19,-0.00,0.52
20.688,-0.25,0.09,0.07,0.27
20.698,-0.01,0.06,0.11,0.12
20.708,0.03,0.08,-0.11,0.14
20.718,0.02,-0.03,-0.36,0.37
20.728,-0.10,-0.32,-0.16,0.37
20.738,-0.17,-0.54,-0.08,0.57
20.748,-0.18,-0.40,-0.30,0.53
20.758,-0.21,0.02,-0.25,0.33
20.768,-0.28,0.28,-0.19,0.44
20.778,-0.42,0.33,-0.24,0.59
20.788,-0.47,0.30,-0.32,0.64
20.798,-0.46,0.24,-0.25,0.57
20.808,-0.55,0.20,-0.19,0.62
20.818,-0.60,0.29,-0.13,0.68
20.828,-0.49,0.34,-0.24,0.65
20.838,-0.38,0.32,-0.37,0.62
20.848,-0.25,0.28,-0.23,0.44
20.858,-0.29,0.27,-0.04,0.40
20.868,-0.42,0.21,0.01,0.47
20.878,-0.23,0.05,0.08,0.25
20.888,-0.01,-0.07,0.17,0.18
20.898,-0.04,-0.08,0.14,0.17
20.908,0.07,0.05,-0.13,0.16
20.918,0.10,0.01,-0.17,0.20
20.928,-0.15,-0.12,0.05,0.20
20.938,-0.36,-0.09,0.11,0.39
20.948,-0.40,0.08,-0.04,0.41
20.958,-0.22,0.23,-0.12,0.34
20.968,-0.09,0.25,-0.27,0.38
20.978,0.02,0.17,-0.34,0.38
20.988,0.22,-0.03,-0.19,0.29
20.998,0.21,-0.17,0.08,0.28
21.008,0.04,-0.20,0.35,0.40
21.018,-0.04,-0.03,0.33,0.34
21.028,-0.13,-0.01,0.20,0.24
21.038,-0.17,-0.27,0.20,0.38
21.048,-0.17,-0.43,0.24,0.52
21.058,-0.38,-0.50,0.18,0.65
21.068,-0.53,-0.43,0.03,0.69
21.078,-0.24,-0.14,-0.21,0.35
21.088,0.01,0.21,-0.46,0.50
21.098,0.10,0.34,-0.34,0.49
21.108,0.21,0.34,-0.13,0.42
21.119,0.25,0.18,0.19,0.36
21.129,0.08,-0.05,0.55,0.55
21.139,-0.00,-0.03,0.52,0.52
21.149,0.10,0.09,0.21,0.25
21.159,0.11,0.03,0.04,0.12
21.169,0.03,-0.03,0.20,0.21
21.179,0.14,-0.03,0.13,0.19
21.188,0.49,0.06,-0.20,0.53
21.199,0.60,0.14,-0.28,0.68
21.209,0.35,0.15,-0.11,0.39
21.218,0.01,0.00,0.22,0.22
21.229,-0.29,-0.02,0.45,0.54
21.239,-0.46,-0.01,0.40,0.61
21.249,-0.44,-0.04,0.52,0.68
21.259,-0.17,-0.02,0.58,0.61
21.269,-0.09,-0.04,0.37,0.39
21.279,0.23,0.09,0.19,0.31
21.289,0.85,0.19,-0.10,0.87
21.299,1.20,0.16,-0.37,1.26
21.309,1.13,0.10,-0.35,1.19
21.319,0.74,-0.06,-0.22,0.78
21.329,0.48,-0.21,-0.05,0.53
21.339,0.36,-0.29,-0.08,0.47
21.349,0.37,-0.26,-0.10,0.47
21.359,0.28,-0.18,-0.02,0.34
21.369,0.38,0.01,0.01,0.38
21.379,0.42,0.04,-0.05,0.42
21.389,0.47,0.09,0.05,0.48
21.399,0.49,0.12,0.17,0.53
21.409,0.52,0.09,0.10,0.53
21.419,0.48,0.12,0.27,0.57
21.429,0.28,0.10,0.37,0.48
21.439,0.15,0.08,0.39,0.43
21.449,0.22,-0.01,0.28,0.35
21.459,0.23,-0.09,-0.02,0.25
21.469,0.11,-0.02,-0.24,0.26
21.479,-0.00,-0.02,-0.32,0.32
21.489,0.05,-0.03,-0.45,0.45
21.499,0.13,-0.12,-0.49,0.52
21.509,0.20,-0.17,-0.17,0.31
21.519,0.07,-0.18,0.06,0.20
21.529,-0.14,-0.24,0.06,0.29
21.539,0.01,-0.18,-0.06,0.19
21.549,0.22,-0.05,0.04,0.23
21.559,0.23,-0.07,0.22,0.33
21.569,0.16,-0.09,0.30,0.35
21.579,-0.13,-0.05,0.30,0.33
21.589,-0.35,-0.11,0.21,0.42
21.599,-0.25,-0.16,-0.01,0.30
21.609,0.04,-0.17,-0.02,0.17
21.619,0.12,-0.09,0.18,0.23
21.629,0.03,0.03,0.24,0.24
21.639,-0.02,0.08,0.26,0.27
21.649,-0.11,0.11,0.28,0.32
21.659,-0.13,0.18,0.20,0.30
21.669,-0.05,0.20,0.19,0.28
21.679,0.07,0.18,0.23,0.30
21.689,0.01,0.20,0.17,0.27
21.699,-0.24,0.20,-0.11,0.33
21.711,-0.44,0.10,-0.46,0.64
21.719,-0.42,0.09,-0.59,0.73
21.729,-0.48,0.33,-0.75,0.94
21.739,-0.12,-0.06,-0.31,0.33
21.749,-0.18,0.02,0.38,0.42
21.759,-0.24,0.04,0.58,0.63
21.769,-0.12,0.13,0.40,0.44
21.779,-0.12,0.11,0.07,0.18
21.789,-0.09,-0.01,-0.17,0.19
21.799,0.08,-0.06,-0.33,0.35
21.809,0.17,-0.12,-0.12,0.24
21.819,0.09,-0.09,0.21,0.25
21.829,-0.02,-0.01,0.20,0.20
21.839,-0.06,-0.02,0.14,0.15
21.849,-0.13,-0.06,0.09,0.17
21.859,-0.06,-0.11,0.05,0.14
