time,ax,ay,az,atotal
0.000,-0.15,0.12,0.42,0.46
0.010,-0.07,0.26,0.04,0.27
0.020,0.01,0.27,-0.36,0.45
0.030,0.11,0.20,-0.66,0.70
0.040,0.32,0.15,-0.84,0.91
0.050,0.48,0.11,-0.92,1.05
0.060,0.49,0.02,-0.89,1.02
0.070,0.50,-0.07,-0.84,0.98
0.080,0.57,-0.10,-0.88,1.05
0.090,0.45,0.06,-0.84,0.95
0.100,0.12,0.20,-0.62,0.67
0.110,-0.12,0.32,-0.28,0.44
0.120,-0.20,0.33,-0.16,0.42
0.130,-0.20,0.37,-0.42,0.59
0.140,-0.29,0.42,-0.80,0.95
0.150,-0.25,0.43,-1.19,1.29
0.160,-0.23,0.41,-1.52,1.59
0.170,-0.23,0.51,-1.68,1.77
0.180,-0.15,0.33,-1.46,1.51
0.190,-0.33,0.01,-0.91,0.97
0.200,-0.24,0.10,-0.54,0.60
0.210,-0.26,0.29,-0.64,0.75
0.220,-0.37,0.42,-0.66,0.86
0.230,-0.40,0.42,-0.48,0.76
0.240,-0.50,0.34,-0.27,0.66
0.250,-0.49,0.33,-0.12,0.60
0.260,-0.30,0.25,-0.45,0.60
0.270,-0.18,0.29,-0.81,0.88
0.280,-0.20,0.33,-0.72,0.81
0.290,-0.14,0.18,-0.07,0.24
0.300,0.00,-0.05,0.51,0.51
0.310,0.01,-0.27,0.30,0.41
0.320,-0.03,-0.21,-0.08,0.23
0.330,-0.03,-0.19,-0.54,0.57
0.340,-0.12,-0.15,-1.07,1.09
0.350,-0.12,-0.12,-1.30,1.31
0.360,-0.05,-0.13,-1.34,1.34
0.370,0.13,-0.16,-1.04,1.06
0.380,0.12,-0.14,-0.56,0.59
0.391,-0.07,-0.03,-0.16,0.18
0.400,-0.17,-0.02,0.13,0.21
0.410,-0.31,-0.08,0.37,0.49
0.420,-0.41,-0.08,0.40,0.58
0.430,-0.40,0.02,0.22,0.46
0.440,-0.28,0.27,-0.02,0.39
0.450,-0.12,0.52,-0.09,0.54
0.460,0.14,0.51,0.17,0.55
0.470,0.64,0.36,0.78,1.07
0.480,1.03,0.22,2.19,2.43
0.490,0.97,0.17,3.32,3.47
0.500,0.65,0.19,3.89,3.95
0.510,0.23,0.16,3.91,3.92
0.520,-0.22,0.20,3.08,3.10
0.530,-0.28,0.33,1.85,1.90
0.540,0.00,0.30,0.82,0.87
0.550,0.08,0.23,0.07,0.25
0.561,0.07,0.16,-0.40,0.44
0.571,0.11,0.08,-0.56,0.57
0.581,0.11,-0.04,-0.58,0.59
0.591,0.08,-0.16,-0.51,0.54
0.601,0.10,-0.16,-0.26,0.32
0.611,0.15,-0.10,-0.06,0.19
0.621,0.11,0.00,-0.08,0.13
0.631,0.09,0.14,-0.08,0.19
0.641,0.05,0.24,-0.03,0.25
0.651,-0.10,0.33,0.18,0.39
0.661,-0.19,0.35,0.37,0.54
0.671,-0.22,0.32,0.48,0.62
0.681,-0.21,0.32,0.44,0.58
0.691,-0.08,0.36,0.96,1.03
0.701,0.25,0.36,1.92,1.97
0.711,-0.12,0.04,1.80,1.81
0.721,-0.28,-0.17,0.25,0.41
0.731,-0.19,-0.17,-0.64,0.69
0.741,-0.15,-0.07,-1.14,1.15
0.751,-0.20,0.06,-1.30,1.31
0.761,-0.23,0.17,-1.18,1.22
0.771,-0.15,0.25,-0.88,0.93
0.781,-0.03,0.29,-0.50,0.58
0.791,-0.03,0.25,-0.17,0.30
0.801,-0.03,0.19,0.08,0.21
0.811,-0.05,0.17,0.28,0.33
0.821,-0.16,0.24,0.18,0.34
0.831,-0.09,0.24,0.29,0.39
0.841,0.05,0.20,0.40,0.45
0.851,0.11,0.15,0.43,0.47
0.861,0.01,0.13,0.37,0.40
0.871,-0.12,0.14,0.25,0.31
0.881,-0.14,0.15,0.09,0.22
0.891,-0.16,0.18,-0.10,0.26
0.901,-0.14,0.20,-0.22,0.33
0.911,-0.11,0.20,-0.27,0.36
0.921,-0.08,0.22,-0.28,0.36
0.931,-0.05,0.22,-0.19,0.30
0.941,-0.02,0.20,-0.07,0.21
0.951,-0.01,0.18,0.05,0.19
0.961,-0.02,0.17,0.21,0.27
0.971,-0.03,0.16,0.33,0.37
0.981,0.06,0.14,0.28,0.32
0.991,0.13,0.14,0.13,0.23
1.001,0.10,0.15,0.02,0.18
1.011,0.04,0.15,-0.05,0.16
1.021,0.02,0.17,-0.10,0.20
1.031,-0.01,0.17,-0.08,0.19
1.041,-0.03,0.16,-0.06,0.18
1.051,-0.04,0.15,-0.03,0.16
1.061,-0.04,0.14,0.02,0.15
1.071,-0.06,0.13,0.07,0.16
1.081,-0.08,0.12,0.08,0.17
1.091,-0.07,0.10,0.05,0.13
1.101,-0.04,0.11,0.01,0.11
1.111,-0.05,0.08,-0.02,0.09
1.121,-0.06,0.08,-0.01,0.10
1.131,-0.08,0.12,0.01,0.15
1.141,-0.09,0.17,0.04,0.20
1.151,-0.09,0.18,0.07,0.22
1.161,-0.06,0.16,0.10,0.20
1.171,-0.01,0.17,0.13,0.21
1.181,0.03,0.18,0.13,0.23
1.191,0.04,0.17,0.11,0.20
1.201,0.04,0.18,0.05,0.19
1.211,0.06,0.15,-0.01,0.16
1.221,0.05,0.15,-0.05,0.17
1.231,0.02,0.16,-0.11,0.20
1.241,-0.02,0.18,-0.12,0.22
1.251,-0.07,0.21,-0.16,0.27
1.261,-0.14,0.23,-0.16,0.31
1.271,-0.16,0.17,-0.12,0.27
1.281,-0.16,0.08,-0.09,0.20
1.291,-0.12,-0.02,-0.02,0.13
1.301,-0.06,-0.08,0.00,0.10
1.311,0.01,-0.10,-0.03,0.11
1.321,0.02,-0.12,-0.05,0.13
1.331,0.02,-0.11,-0.03,0.12
1.341,0.01,-0.11,0.01,0.11
1.351,0.05,-0.10,0.05,0.12
1.361,0.05,-0.06,0.05,0.09
1.371,0.06,-0.02,0.04,0.08
1.381,0.04,-0.00,0.05,0.06
1.391,-0.01,0.02,0.05,0.05
1.401,-0.07,0.08,0.03,0.11
1.411,-0.11,0.13,0.02,0.17
1.421,-0.14,0.17,0.02,0.22
1.431,-0.12,0.17,0.06,0.22
1.441,-0.12,0.18,0.08,0.24
1.451,-0.12,0.19,0.06,0.24
1.461,-0.07,0.22,0.03,0.23
1.471,-0.02,0.22,0.01,0.22
1.481,-0.02,0.17,-0.02,0.17
1.491,-0.03,0.15,-0.06,0.16
1.501,-0.10,0.14,-0.10,0.20
1.511,-0.17,0.17,-0.08,0.25
1.521,-0.17,0.20,-0.05,0.27
1.531,-0.19,0.17,0.02,0.25
1.541,-0.22,0.17,0.05,0.28
1.551,-0.26,0.20,0.04,0.33
1.561,-0.26,0.26,-0.04,0.37
1.571,-0.22,0.33,-0.17,0.43
1.581,-0.17,0.38,-0.23,0.48
1.591,-0.09,0.37,-0.18,0.42
1.601,-0.05,0.34,-0.02,0.35
1.611,-0.06,0.28,0.18,0.34
1.621,-0.08,0.25,0.34,0.43
1.631,-0.01,0.22,0.31,0.38
1.641,0.10,0.17,0.17,0.26
1.651,0.17,0.11,0.05,0.21
1.661,0.23,0.09,-0.07,0.26
1.671,0.27,0.09,-0.15,0.32
1.682,0.26,0.08,-0.17,0.32
1.691,0.22,0.05,-0.11,0.25
1.702,0.16,0.04,-0.04,0.17
1.712,0.13,0.04,-0.02,0.14
1.722,0.13,0.04,-0.01,0.14
1.732,0.12,0.02,-0.02,0.13
1.742,0.06,0.02,0.00,0.07
1.752,0.02,0.05,0.02,0.06
1.762,0.00,0.10,0.03,0.10
1.772,-0.07,0.11,0.03,0.13
1.782,-0.06,0.11,0.02,0.13
1.792,-0.04,0.12,0.03,0.12
1.802,-0.02,0.13,0.06,0.15
1.812,0.03,0.13,0.02,0.14
1.822,0.10,0.15,-0.06,0.19
1.832,0.09,0.12,-0.06,0.16
1.842,-0.02,0.09,-0.01,0.09
1.852,-0.08,0.06,0.08,0.12
1.862,-0.08,0.06,0.16,0.19
1.872,-0.09,0.04,0.21,0.23
1.882,-0.16,0.05,0.21,0.27
1.892,-0.19,0.18,0.22,0.34
1.902,-0.08,0.47,0.31,0.57
1.912,0.06,0.68,0.25,0.72
1.922,0.04,0.60,-0.02,0.60
1.932,-0.10,0.35,-0.30,0.47
1.942,-0.17,0.08,-0.41,0.45
1.952,-0.18,-0.15,-0.40,0.46
1.962,-0.14,-0.29,-0.39,0.51
1.972,0.00,-0.39,-0.39,0.56
1.982,0.06,-0.48,-0.32,0.58
1.992,0.03,-0.58,-0.14,0.60
2.002,0.02,-0.55,0.11,0.56
2.012,0.01,-0.39,0.30,0.49
2.022,0.02,-0.22,0.32,0.39
2.032,0.02,-0.07,0.18,0.19
2.042,0.05,0.02,0.06,0.08
2.052,0.07,0.11,-0.03,0.13
2.062,0.07,0.20,-0.08,0.23
2.072,0.01,0.21,-0.10,0.24
2.082,-0.05,0.19,-0.06,0.20
2.092,-0.09,0.17,-0.01,0.19
2.102,-0.08,0.15,0.01,0.17
2.112,-0.09,0.16,0.01,0.18
2.122,-0.09,0.19,-0.04,0.21
2.132,-0.10,0.21,-0.08,0.25
2.142,-0.09,0.24,-0.10,0.27
2.152,-0.06,0.24,-0.07,0.25
2.162,-0.02,0.25,-0.01,0.25
2.172,0.02,0.26,0.04,0.26
2.182,0.04,0.26,0.07,0.27
2.192,0.03,0.23,0.10,0.26
2.202,0.02,0.21,0.12,0.25
2.212,0.02,0.21,0.11,0.24
2.222,0.00,0.18,0.09,0.20
2.232,-0.02,0.15,0.08,0.18
2.242,-0.04,0.12,0.06,0.14
2.252,-0.01,0.07,0.01,0.07
2.262,0.03,0.03,-0.05,0.06
2.272,0.03,-0.00,-0.05,0.06
2.282,0.02,-0.03,-0.04,0.05
2.292,0.01,-0.00,-0.01,0.02
2.302,0.01,0.01,0.01,0.01
2.312,0.00,-0.01,0.01,0.01
2.322,0.00,-0.01,0.03,0.03
2.332,0.01,-0.01,0.05,0.05
2.342,0.01,0.01,0.04,0.04
2.352,-0.01,-0.01,0.04,0.04
2.362,-0.02,-0.01,0.02,0.03
2.372,0.02,-0.02,-0.02,0.03
2.382,0.01,-0.01,-0.04,0.04
2.392,0.01,0.01,-0.03,0.03
2.402,-0.01,0.01,0.00,0.01
2.412,-0.02,0.03,0.06,0.07
2.422,-0.06,0.07,0.09,0.13
2.432,-0.04,0.08,0.09,0.13
2.442,-0.04,0.10,0.07,0.13
2.452,-0.01,0.12,0.07,0.14
2.462,0.02,0.10,0.06,0.12
2.472,-0.00,0.11,0.02,0.11
2.482,-0.01,0.09,0.02,0.09
2.492,-0.00,0.08,-0.01,0.08
2.502,0.00,0.07,-0.01,0.07
2.512,-0.01,0.08,0.01,0.08
2.522,-0.02,0.07,0.02,0.08
2.532,-0.03,0.08,-0.00,0.08
2.542,-0.03,0.08,-0.01,0.09
2.552,-0.03,0.08,-0.02,0.09
2.562,-0.01,0.07,-0.01,0.07
2.572,-0.02,0.06,-0.02,0.07
2.582,-0.04,0.04,-0.02,0.06
2.592,-0.03,0.04,-0.02,0.06
2.602,-0.03,0.04,-0.01,0.05
2.612,0.01,0.03,-0.03,0.04
2.622,0.02,0.03,0.00,0.04
2.632,0.02,0.05,0.01,0.05
2.642,0.05,0.04,-0.02,0.07
2.652,0.02,0.03,-0.05,0.06
2.662,-0.03,0.02,-0.04,0.05
2.672,-0.07,0.07,-0.02,0.10
2.682,-0.05,0.09,-0.06,0.12
2.692,-0.00,0.09,-0.13,0.16
2.702,-0.01,0.07,-0.14,0.15
2.712,-0.03,0.03,-0.11,0.12
2.722,-0.04,0.04,-0.07,0.09
2.732,-0.02,0.05,-0.08,0.10
2.742,0.00,0.07,-0.05,0.08
2.753,0.04,0.07,0.00,0.08
2.762,0.03,0.06,0.03,0.08
2.773,-0.01,0.08,0.07,0.11
2.783,-0.04,0.08,0.05,0.10
2.793,-0.02,0.11,0.01,0.11
2.803,-0.03,0.11,0.01,0.11
2.813,-0.03,0.10,-0.03,0.11
2.823,-0.03,0.10,-0.04,0.11
2.833,-0.04,0.07,-0.03,0.08
2.843,-0.04,0.05,-0.00,0.06
2.853,-0.02,0.06,-0.02,0.06
2.863,-0.02,0.04,-0.01,0.05
2.873,0.02,0.03,-0.01,0.04
2.883,0.01,0.04,-0.04,0.05
2.893,-0.00,0.03,-0.03,0.04
2.903,0.01,0.02,-0.03,0.03
2.913,-0.01,0.02,-0.04,0.04
2.923,-0.01,0.05,-0.02,0.05
2.933,-0.02,0.06,0.01,0.06
2.943,-0.02,0.07,0.07,0.10
2.953,-0.05,0.07,0.06,0.11
2.963,-0.01,0.06,0.04,0.07
2.973,0.03,0.05,-0.01,0.06
2.983,0.05,0.04,-0.03,0.07
2.993,0.04,0.02,-0.06,0.07
3.003,0.02,0.05,-0.08,0.10
3.013,0.02,0.06,-0.06,0.08
3.023,0.00,0.04,-0.03,0.05
3.033,0.02,0.03,-0.01,0.04
3.043,0.01,0.02,0.03,0.04
3.053,0.01,0.02,0.04,0.04
3.063,0.00,0.02,0.04,0.05
3.073,0.01,0.03,0.04,0.05
3.083,0.01,0.05,0.02,0.05
3.093,0.02,0.05,0.02,0.06
3.103,0.04,0.08,0.02,0.09
3.113,-0.00,0.06,0.05,0.07
3.123,0.01,0.05,0.04,0.07
3.133,-0.00,0.05,0.04,0.06
3.143,-0.04,0.07,0.02,0.08
3.153,-0.03,0.08,0.01,0.08
3.163,-0.01,0.06,-0.01,0.06
3.173,0.00,0.05,-0.01,0.05
3.183,-0.02,0.04,-0.00,0.04
3.193,-0.03,0.03,0.00,0.05
3.203,-0.03,0.04,0.02,0.05
3.213,-0.01,0.03,-0.00,0.03
3.223,0.01,0.04,0.01,0.04
3.233,0.01,0.03,0.03,0.05
3.243,0.03,0.03,0.00,0.04
3.253,0.03,0.03,0.01,0.04
3.263,-0.02,0.04,-0.03,0.05
3.273,-0.03,0.04,-0.04,0.07
3.283,-0.00,0.05,-0.04,0.07
3.293,0.00,0.05,-0.02,0.06
3.303,0.02,0.05,0.01,0.05
3.313,-0.00,0.04,0.01,0.04
3.323,0.02,0.01,-0.02,0.03
3.333,0.03,-0.00,-0.05,0.06
3.343,0.01,-0.00,-0.04,0.04
3.353,-0.00,0.03,-0.01,0.03
3.363,-0.01,0.06,-0.02,0.06
3.373,0.03,0.06,-0.05,0.08
3.383,0.03,0.02,-0.10,0.11
3.393,0.02,0.01,-0.07,0.07
3.403,-0.02,0.01,-0.04,0.04
3.413,-0.04,0.02,0.01,0.04
3.423,-0.02,0.03,-0.01,0.04
3.433,0.01,0.04,-0.00,0.05
3.443,0.02,0.06,0.03,0.07
3.453,0.02,0.06,0.02,0.07
3.463,-0.02,0.06,-0.00,0.06
3.473,-0.04,0.05,-0.01,0.06
3.483,-0.05,0.05,-0.03,0.08
3.493,-0.01,0.06,-0.04,0.07
3.503,-0.00,0.08,-0.01,0.08
3.513,-0.01,0.06,0.02,0.07
3.523,-0.02,0.05,0.01,0.05
3.533,-0.04,0.05,0.02,0.06
3.543,-0.05,0.05,-0.02,0.07
3.553,-0.04,0.03,-0.04,0.07
3.563,-0.02,0.03,0.01,0.04
3.573,-0.02,0.03,-0.00,0.04
3.583,-0.02,0.04,0.01,0.05
3.593,-0.00,0.06,0.02,0.06
3.603,0.02,0.02,0.02,0.04
3.613,0.04,0.02,0.04,0.06
3.623,0.02,0.03,0.06,0.07
3.633,-0.00,0.04,0.08,0.09
3.643,0.01,0.05,0.03,0.06
3.653,0.02,0.05,-0.03,0.06
3.663,0.03,0.04,-0.04,0.07
3.673,0.01,0.04,-0.06,0.07
3.683,-0.01,0.05,-0.04,0.06
3.693,-0.02,0.03,-0.02,0.04
3.703,-0.02,0.02,0.01,0.03
3.713,0.02,0.00,0.03,0.03
3.723,0.01,-0.00,0.05,0.05
3.733,0.01,0.01,0.06,0.06
3.743,0.02,0.00,0.04,0.05
3.753,0.01,0.01,0.02,0.02
3.763,-0.01,0.00,-0.00,0.01
3.773,-0.02,0.01,-0.01,0.02
3.783,-0.01,0.05,-0.03,0.06
3.793,-0.00,0.06,-0.03,0.06
3.803,-0.00,0.06,0.01,0.06
3.813,-0.03,0.06,0.01,0.07
3.823,-0.04,0.05,0.01,0.06
3.833,-0.01,0.06,0.03,0.07
3.843,-0.02,0.05,0.02,0.06
3.853,-0.01,0.04,0.03,0.05
3.863,-0.00,0.02,0.02,0.03
3.874,-0.02,0.01,0.04,0.05
3.884,-0.01,0.01,0.03,0.04
3.893,0.01,0.01,0.04,0.04
3.904,0.02,0.02,0.03,0.04
3.914,0.01,0.04,0.04,0.06
3.924,0.01,0.02,0.05,0.05
3.934,0.01,0.02,0.05,0.05
3.944,0.02,0.03,0.04,0.05
3.954,0.02,0.00,0.04,0.04
3.964,0.01,0.01,0.01,0.02
3.974,0.03,0.02,-0.00,0.03
3.984,0.04,0.02,-0.01,0.04
3.994,0.04,0.02,-0.02,0.05
4.004,0.03,0.03,-0.06,0.07
4.014,0.01,0.02,-0.10,0.10
4.024,0.00,0.03,-0.09,0.10
4.034,-0.01,0.03,-0.07,0.08
4.044,-0.05,0.04,-0.02,0.07
4.054,-0.02,0.03,0.01,0.04
4.064,-0.00,0.02,0.01,0.02
4.074,-0.00,-0.01,-0.04,0.04
4.084,0.01,-0.03,-0.06,0.07
4.094,0.02,0.00,-0.05,0.06
4.104,0.01,0.04,-0.10,0.11
4.114,0.04,0.04,-0.14,0.15
4.124,0.05,0.02,-0.16,0.17
4.134,0.02,-0.00,-0.15,0.15
4.144,-0.02,-0.00,-0.10,0.11
4.154,-0.04,0.00,-0.06,0.07
4.164,-0.02,0.01,-0.05,0.05
4.174,-0.01,0.02,0.00,0.03
4.184,0.01,0.01,0.09,0.09
4.194,-0.00,0.00,0.15,0.15
4.204,-0.02,0.00,0.17,0.17
4.214,-0.01,0.01,0.17,0.17
4.224,-0.01,0.02,0.13,0.13
4.234,0.02,0.04,0.08,0.09
4.244,0.01,0.05,0.03,0.06
4.254,0.00,0.06,0.00,0.06
4.264,-0.02,0.07,-0.00,0.07
4.274,-0.04,0.08,-0.01,0.09
4.284,-0.05,0.07,-0.00,0.09
4.294,-0.04,0.06,-0.01,0.07
4.304,-0.02,0.05,0.01,0.06
4.314,-0.05,0.04,-0.00,0.06
4.324,-0.05,0.03,-0.00,0.06
4.334,-0.02,0.03,0.01,0.04
4.344,-0.01,0.02,0.04,0.04
4.354,0.02,0.03,0.05,0.06
4.364,-0.01,0.05,0.07,0.08
4.374,-0.01,0.03,0.07,0.08
4.384,-0.00,0.04,0.02,0.04
4.394,0.02,0.03,-0.04,0.06
4.404,0.04,0.03,-0.09,0.11
4.414,0.04,0.02,-0.10,0.11
4.424,0.03,0.04,-0.08,0.09
4.434,0.02,0.04,-0.06,0.07
4.444,0.02,0.01,-0.05,0.05
4.454,0.02,-0.01,-0.02,0.03
4.464,0.03,-0.02,-0.00,0.03
4.474,0.03,-0.01,-0.01,0.04
4.484,0.03,-0.01,-0.02,0.03
4.494,0.02,-0.00,-0.03,0.03
4.504,0.00,0.00,-0.02,0.02
4.514,0.00,0.02,-0.02,0.03
4.524,0.01,0.04,-0.04,0.05
4.534,-0.01,0.03,-0.03,0.05
4.544,-0.04,0.03,-0.02,0.06
4.554,-0.03,0.04,0.02,0.05
4.564,-0.05,0.04,0.03,0.07
4.574,-0.04,0.04,0.05,0.08
4.584,-0.03,0.03,0.04,0.06
4.594,-0.02,0.02,0.04,0.05
4.604,-0.02,0.01,0.04,0.05
4.614,-0.03,0.02,0.03,0.05
4.624,-0.02,0.05,0.02,0.05
4.634,-0.00,0.04,0.05,0.06
4.644,0.00,0.04,0.04,0.06
4.654,0.02,0.02,0.04,0.05
4.664,0.01,0.01,0.02,0.03
4.674,-0.00,-0.01,0.02,0.03
4.684,0.01,0.00,-0.01,0.01
4.694,0.02,0.01,-0.01,0.03
4.704,0.02,0.00,-0.02,0.03
4.714,0.01,-0.00,-0.05,0.05
4.724,0.02,-0.02,-0.05,0.06
4.734,0.00,-0.01,-0.03,0.03
4.744,0.01,0.01,-0.03,0.04
4.754,0.01,0.03,-0.01,0.03
4.764,0.03,0.03,-0.01,0.04
4.774,0.02,0.03,-0.00,0.04
4.784,0.04,0.01,-0.02,0.05
4.795,0.03,-0.01,-0.04,0.05
4.804,0.00,-0.01,-0.01,0.02
4.814,-0.02,0.01,0.02,0.03
4.824,0.00,0.04,0.02,0.04
4.835,0.02,0.05,-0.07,0.09
4.844,0.05,0.03,-0.11,0.13
4.855,0.04,0.00,-0.12,0.12
4.864,0.01,-0.01,-0.06,0.07
4.874,-0.02,-0.00,-0.01,0.02
4.884,0.00,0.01,0.02,0.02
4.895,0.00,0.01,0.03,0.03
4.904,0.04,0.01,0.06,0.08
4.914,0.05,0.02,0.08,0.10
4.924,0.01,0.01,0.05,0.05
4.935,-0.01,0.01,0.01,0.02
4.944,-0.02,0.01,-0.05,0.06
4.955,-0.01,0.01,-0.08,0.09
4.964,0.00,0.03,-0.09,0.09
4.974,-0.01,0.01,-0.05,0.05
4.984,-0.00,0.04,-0.03,0.05
4.995,-0.01,0.04,0.01,0.04
5.005,-0.02,0.04,0.03,0.05
5.015,-0.03,0.03,0.03,0.05
5.025,-0.01,0.00,0.04,0.04
5.034,-0.00,0.02,0.03,0.04
5.045,0.02,0.00,0.01,0.02
5.054,0.02,0.01,-0.01,0.03
5.065,0.01,0.02,0.00,0.02
5.075,0.02,0.02,-0.00,0.03
5.085,0.01,0.01,0.04,0.04
5.095,-0.01,0.02,0.07,0.08
5.105,-0.00,0.02,0.05,0.06
5.115,0.02,0.02,0.02,0.03
5.125,0.05,0.00,-0.03,0.06
5.135,0.03,0.02,-0.06,0.07
5.145,0.00,0.01,-0.04,0.04
5.155,0.00,0.02,-0.02,0.03
5.165,0.01,0.01,0.01,0.01
5.175,0.02,-0.00,0.03,0.04
5.185,0.00,-0.01,0.04,0.04
5.195,0.01,-0.03,0.04,0.05
5.205,-0.01,-0.03,0.02,0.03
5.215,0.01,-0.03,0.00,0.03
5.225,0.01,-0.01,-0.02,0.02
5.235,0.04,-0.00,-0.04,0.05
5.245,0.03,0.03,-0.05,0.06
5.255,0.03,0.02,-0.04,0.06
5.265,0.01,0.03,-0.01,0.03
5.275,-0.00,0.03,0.01,0.03
5.285,-0.03,0.04,0.04,0.06
5.295,-0.02,0.03,0.04,0.06
5.305,-0.02,0.01,0.02,0.04
5.315,-0.01,0.01,0.02,0.02
5.325,0.01,-0.01,0.00,0.01
5.335,0.00,-0.00,-0.01,0.01
5.345,0.03,-0.00,-0.01,0.04
5.355,0.01,0.02,-0.03,0.03
5.365,-0.00,0.03,-0.01,0.03
5.375,-0.00,0.03,-0.00,0.03
5.385,0.02,0.01,0.01,0.02
5.395,0.00,0.01,0.01,0.01
5.405,0.01,-0.01,-0.00,0.02
5.415,0.02,-0.01,0.00,0.03
5.425,0.03,-0.01,0.01,0.03
5.435,0.02,-0.01,-0.01,0.02
5.445,-0.00,-0.00,-0.03,0.03
5.455,0.02,0.00,-0.03,0.03
5.465,0.03,0.02,-0.02,0.04
5.475,0.03,0.01,-0.02,0.03
5.485,0.02,0.01,0.01,0.02
5.495,0.00,0.02,-0.01,0.02
5.505,-0.01,0.02,-0.00,0.02
5.515,0.01,0.03,0.01,0.03
5.525,0.01,0.02,-0.00,0.02
5.535,0.01,0.01,-0.04,0.04
5.545,0.02,0.02,-0.06,0.07
5.555,0.00,-0.00,-0.04,0.04
5.565,-0.02,-0.04,0.02,0.05
5.575,-0.04,-0.02,0.07,0.08
5.585,0.00,0.04,0.04,0.06
5.595,0.06,0.02,-0.00,0.06
5.605,0.06,-0.02,-0.06,0.09
5.615,0.04,-0.02,-0.08,0.10
5.625,0.00,-0.01,-0.04,0.04
5.635,-0.03,0.03,-0.02,0.04
5.645,0.00,0.01,-0.02,0.02
5.655,0.02,-0.01,0.00,0.03
5.665,0.03,-0.00,0.03,0.04
5.675,-0.00,-0.01,0.05,0.05
5.685,-0.01,-0.00,0.03,0.04
5.695,-0.02,0.00,-0.02,0.03
5.705,-0.00,0.00,-0.06,0.06
5.715,-0.01,0.02,-0.05,0.06
5.725,0.02,0.02,0.01,0.03
5.735,0.01,0.02,0.04,0.05
5.745,0.01,0.02,0.06,0.06
5.755,0.01,0.02,0.08,0.08
5.765,0.01,0.02,0.07,0.07
5.775,0.01,0.01,0.02,0.03
5.785,-0.01,0.02,-0.01,0.02
5.795,-0.02,0.03,-0.02,0.04
5.805,-0.01,0.02,-0.02,0.03
5.815,0.01,0.02,-0.01,0.03
5.825,0.00,0.02,0.01,0.02
5.835,-0.00,-0.00,0.02,0.02
5.845,0.03,0.01,0.05,0.06
5.855,-0.01,0.01,0.04,0.04
5.865,-0.01,0.03,0.01,0.03
5.875,0.01,0.02,-0.03,0.04
5.885,0.04,-0.00,-0.05,0.06
5.895,0.03,0.00,-0.03,0.05
5.905,0.01,0.03,-0.03,0.04
5.915,0.00,0.01,-0.03,0.04
5.925,0.00,-0.01,-0.02,0.02
5.935,0.00,-0.02,-0.00,0.02
5.945,-0.01,-0.01,0.00,0.02
5.955,-0.01,-0.03,0.02,0.03
5.965,0.00,-0.02,-0.02,0.03
5.975,0.01,-0.03,-0.03,0.04
5.985,-0.02,-0.03,-0.03,0.04
5.995,-0.00,-0.01,-0.03,0.03
6.005,0.01,0.01,-0.00,0.02
6.015,0.00,0.04,0.02,0.04
6.025,-0.00,0.04,0.03,0.05
6.035,-0.02,0.03,0.05,0.07
6.045,-0.02,0.06,0.07,0.09
6.055,-0.03,0.04,0.07,0.09
6.065,0.00,0.05,0.02,0.05
6.075,-0.00,0.03,-0.01,0.03
6.085,-0.01,0.02,-0.02,0.03
6.095,-0.01,0.01,-0.03,0.03
6.105,-0.02,0.01,-0.03,0.04
6.115,-0.03,0.02,-0.03,0.04
6.126,-0.02,0.03,-0.01,0.03
6.136,0.00,0.03,0.00,0.03
6.146,-0.01,0.03,0.00,0.03
6.156,0.01,0.01,-0.00,0.01
6.166,-0.00,0.00,0.01,0.01
6.176,-0.00,0.01,0.01,0.02
6.186,-0.00,-0.01,-0.02,0.03
6.196,0.01,-0.01,-0.03,0.03
6.206,0.02,-0.02,-0.05,0.05
6.216,0.03,-0.02,-0.05,0.06
6.226,0.03,-0.01,-0.06,0.07
6.236,0.02,-0.01,-0.06,0.06
6.246,-0.00,-0.00,-0.06,0.06
6.256,-0.01,0.01,-0.05,0.05
6.266,-0.01,0.04,-0.05,0.06
6.276,-0.01,0.04,-0.04,0.06
6.286,-0.00,0.04,0.02,0.04
6.296,0.01,0.03,0.01,0.03
6.306,0.03,-0.01,-0.04,0.05
6.316,-0.00,-0.03,-0.06,0.07
6.326,-0.03,-0.02,-0.03,0.04
6.336,-0.02,0.03,-0.03,0.05
6.346,0.01,0.05,-0.06,0.08
6.356,0.02,0.03,-0.09,0.09
6.366,0.01,-0.01,-0.08,0.08
6.376,-0.00,-0.01,-0.03,0.03
6.386,-0.02,-0.00,0.03,0.04
6.396,-0.02,0.01,0.03,0.04
6.406,0.01,-0.01,0.02,0.03
6.416,0.03,0.01,0.03,0.05
6.426,0.04,0.01,0.03,0.05
6.436,0.01,0.01,0.03,0.03
6.446,-0.02,0.03,0.01,0.03
6.456,-0.02,0.01,-0.02,0.03
6.466,-0.02,0.04,-0.06,0.08
6.476,-0.01,0.01,-0.09,0.09
6.486,0.00,0.03,-0.07,0.08
6.496,0.00,0.02,-0.04,0.04
6.506,-0.01,0.02,0.01,0.03
6.516,-0.01,0.01,0.03,0.04
6.526,-0.02,0.00,0.06,0.06
6.536,-0.02,-0.00,0.03,0.03
6.546,-0.03,0.00,0.04,0.05
6.556,-0.01,-0.01,0.02,0.03
6.566,0.00,0.01,-0.01,0.01
6.576,0.02,0.00,-0.02,0.03
6.586,0.03,0.01,-0.02,0.04
6.596,0.03,0.02,0.01,0.03
6.606,-0.02,0.04,0.08,0.09
6.616,-0.01,0.03,0.10,0.10
6.626,0.01,0.02,0.05,0.06
6.636,0.03,0.02,-0.01,0.04
6.646,0.03,0.01,-0.04,0.05
6.656,0.02,-0.01,-0.03,0.04
6.666,0.01,0.00,-0.02,0.02
6.676,0.02,0.02,0.01,0.03
6.686,0.02,0.01,0.05,0.06
6.696,0.02,-0.00,0.05,0.06
6.706,0.04,-0.01,0.03,0.05
6.716,0.03,-0.01,0.00,0.03
6.726,-0.00,-0.01,-0.04,0.04
6.736,0.01,0.01,-0.05,0.05
6.746,0.01,0.03,-0.07,0.07
6.756,0.00,0.03,-0.06,0.07
6.766,0.01,0.02,-0.04,0.05
6.776,-0.01,0.03,-0.02,0.04
6.786,-0.01,0.02,0.01,0.02
6.796,-0.02,0.03,0.02,0.04
6.806,0.00,0.04,0.02,0.04
6.816,-0.00,0.03,0.03,0.04
6.826,-0.00,0.02,0.03,0.03
6.836,-0.00,0.01,0.02,0.02
6.846,0.01,-0.01,0.02,0.03
6.856,0.02,0.01,0.01,0.03
6.866,0.01,-0.00,0.00,0.01
6.876,0.02,-0.02,-0.01,0.03
6.886,0.02,-0.00,-0.02,0.03
6.896,-0.00,-0.01,-0.02,0.03
6.906,0.01,-0.02,-0.03,0.04
6.916,0.01,-0.02,-0.01,0.03
6.926,0.01,-0.02,0.01,0.03
6.936,-0.02,-0.03,0.01,0.04
6.946,-0.01,-0.03,0.03,0.04
6.956,0.02,-0.02,0.02,0.04
6.966,0.02,-0.01,0.02,0.03
6.976,0.01,-0.01,-0.00,0.02
6.986,0.01,-0.01,-0.02,0.02
6.996,0.02,-0.00,-0.00,0.02
7.006,0.00,0.02,-0.03,0.04
7.016,0.01,0.03,-0.02,0.04
7.026,-0.01,0.03,-0.00,0.03
7.036,0.01,0.02,-0.04,0.04
7.046,0.04,0.01,-0.03,0.05
7.056,-0.02,-0.02,-0.03,0.04
7.066,-0.03,-0.01,0.04,0.05
7.076,-0.02,0.02,0.04,0.05
7.086,0.02,0.05,-0.02,0.06
7.096,0.04,0.02,-0.09,0.11
7.106,0.04,-0.00,-0.11,0.12
7.116,0.02,-0.00,-0.07,0.07
7.126,-0.01,-0.00,-0.01,0.01
7.136,-0.00,0.00,0.00,0.01
7.146,0.03,0.03,0.01,0.04
7.157,0.04,-0.00,0.02,0.04
7.167,0.04,-0.01,0.03,0.05
7.176,0.00,0.01,0.02,0.02
7.186,-0.01,-0.01,-0.02,0.02
7.197,-0.02,0.01,-0.06,0.06
7.206,-0.01,0.02,-0.06,0.07
7.217,0.00,0.02,-0.04,0.05
7.227,-0.01,0.02,-0.03,0.04
7.237,0.01,0.03,0.01,0.03
7.247,-0.00,0.03,0.02,0.03
7.257,-0.02,0.02,0.04,0.04
7.267,-0.03,0.01,0.03,0.04
7.277,-0.03,0.01,0.02,0.04
7.287,-0.00,-0.02,0.02,0.02
7.297,-0.00,-0.01,0.03,0.03
7.307,0.01,0.00,-0.01,0.01
7.317,0.02,-0.00,0.01,0.02
7.327,0.02,0.00,0.02,0.03
7.337,0.04,0.01,0.03,0.05
7.347,-0.00,0.02,0.08,0.08
7.357,-0.01,0.04,0.08,0.09
7.367,-0.01,0.03,0.02,0.04
7.377,0.03,-0.00,-0.03,0.04
7.387,0.03,-0.01,-0.06,0.06
7.397,0.01,-0.00,-0.06,0.06
7.407,-0.00,0.01,-0.04,0.04
7.417,-0.00,0.00,0.00,0.01
7.427,0.02,0.00,0.03,0.04
7.437,0.02,-0.03,0.06,0.06
7.447,0.01,-0.02,0.06,0.06
7.457,0.02,-0.03,0.03,0.05
7.467,0.02,-0.02,-0.01,0.03
7.477,0.02,-0.01,-0.02,0.03
7.487,0.02,0.01,-0.02,0.03
7.497,0.03,0.02,-0.04,0.06
7.507,0.01,0.03,-0.05,0.06
7.517,-0.00,0.02,-0.03,0.04
7.527,-0.01,0.02,-0.01,0.02
7.537,-0.02,0.03,0.02,0.04
7.547,-0.02,0.03,0.03,0.04
7.557,-0.02,0.02,0.01,0.03
7.567,-0.00,0.00,0.01,0.01
7.577,-0.02,-0.00,0.03,0.04
7.587,-0.00,-0.01,0.03,0.03
7.597,0.01,-0.02,0.03,0.04
7.607,0.01,-0.02,0.02,0.03
7.617,0.03,0.00,0.02,0.04
7.627,0.03,0.01,0.02,0.04
7.637,0.01,-0.01,0.01,0.02
7.647,0.00,-0.02,0.01,0.02
7.657,0.01,-0.01,-0.01,0.01
7.667,0.01,-0.00,0.00,0.01
7.677,-0.03,0.00,0.01,0.03
7.687,-0.00,-0.01,0.00,0.01
7.697,0.02,-0.01,0.01,0.02
7.707,0.03,0.00,0.00,0.03
7.717,0.03,0.00,-0.02,0.03
7.727,0.01,0.00,-0.00,0.01
7.737,-0.01,0.01,-0.01,0.02
7.747,0.01,0.01,-0.01,0.02
7.757,0.02,0.01,-0.01,0.02
7.767,0.01,0.01,-0.02,0.03
7.777,0.00,-0.01,-0.02,0.02
7.787,-0.00,0.00,-0.01,0.01
7.797,-0.03,0.03,0.01,0.05
7.807,-0.01,0.03,0.00,0.03
7.817,0.00,0.03,0.02,0.03
7.827,0.00,0.02,0.00,0.02
7.837,0.02,0.01,-0.01,0.02
7.847,0.02,0.00,-0.04,0.05
7.857,0.01,-0.03,-0.02,0.04
7.867,-0.03,-0.02,0.02,0.04
7.877,-0.03,0.02,0.00,0.04
7.887,0.02,0.01,-0.07,0.07
7.897,0.07,-0.00,-0.10,0.12
7.907,0.03,-0.02,-0.09,0.10
7.917,-0.00,-0.02,-0.04,0.05
7.927,-0.02,0.01,0.02,0.03
7.937,-0.01,-0.01,0.05,0.05
7.947,0.01,-0.01,0.03,0.03
7.957,0.03,-0.02,0.03,0.05
7.967,0.06,-0.02,0.01,0.07
7.977,0.04,-0.01,-0.01,0.04
7.987,0.02,0.00,-0.03,0.04
7.997,-0.01,0.02,-0.04,0.04
8.007,-0.03,0.03,-0.06,0.07
8.017,-0.01,0.03,-0.05,0.06
8.027,-0.01,0.04,-0.02,0.04
8.037,-0.03,0.04,0.01,0.05
8.047,-0.04,0.05,0.04,0.07
8.057,-0.02,0.03,0.04,0.06
8.067,-0.02,0.02,0.01,0.03
8.077,-0.02,0.00,-0.00,0.02
8.087,-0.00,0.01,-0.03,0.03
8.097,0.00,0.01,-0.01,0.01
8.107,0.00,0.00,0.04,0.04
8.117,-0.01,0.01,0.07,0.07
8.127,0.02,0.00,0.07,0.07
8.137,0.02,-0.00,0.06,0.06
8.147,0.02,0.02,0.06,0.07
8.157,0.03,0.01,0.02,0.04
8.167,0.02,0.02,-0.03,0.04
8.177,0.04,0.01,-0.06,0.07
8.187,0.04,0.00,-0.07,0.08
8.197,0.01,0.02,-0.04,0.05
8.207,-0.02,0.02,0.01,0.03
8.217,-0.00,0.01,0.02,0.03
8.227,0.01,0.00,0.05,0.05
8.237,0.03,-0.02,0.04,0.06
8.247,0.05,-0.03,0.03,0.06
8.257,0.03,-0.04,0.02,0.05
8.267,0.02,-0.02,-0.01,0.03
8.277,0.01,-0.04,-0.02,0.04
8.287,0.00,-0.00,-0.02,0.03
8.298,-0.00,0.02,-0.04,0.04
8.308,-0.01,0.02,-0.03,0.04
8.318,-0.04,0.02,-0.03,0.06
8.328,-0.03,0.02,0.00,0.04
8.338,-0.04,0.02,0.00,0.05
8.348,-0.05,-0.00,0.01,0.05
8.358,-0.04,0.01,-0.01,0.04
8.368,-0.03,0.01,-0.03,0.05
8.378,-0.01,-0.02,-0.05,0.05
8.388,-0.01,0.00,-0.06,0.06
8.398,-0.01,-0.02,-0.07,0.08
8.408,0.01,-0.02,-0.05,0.05
8.418,0.02,0.00,-0.02,0.03
8.428,0.00,0.01,-0.01,0.01
8.438,0.00,0.01,0.01,0.02
8.448,-0.01,-0.01,0.02,0.02
8.458,-0.01,-0.02,0.02,0.03
8.468,0.01,-0.02,-0.01,0.02
8.478,0.02,-0.01,-0.03,0.04
8.488,0.01,-0.03,-0.02,0.04
8.498,0.02,-0.01,-0.04,0.04
8.508,0.04,-0.00,-0.04,0.06
8.518,0.02,-0.00,-0.05,0.06
8.528,-0.03,-0.00,-0.07,0.08
8.538,-0.03,0.02,-0.04,0.05
8.548,-0.04,0.03,-0.02,0.06
8.558,-0.04,0.03,0.00,0.05
8.568,-0.02,0.03,0.02,0.04
8.578,0.02,0.00,-0.02,0.03
8.588,0.03,-0.01,-0.06,0.07
8.598,-0.01,-0.02,-0.04,0.05
8.608,-0.02,-0.01,0.00,0.02
8.618,-0.03,0.04,-0.00,0.05
8.628,-0.00,0.02,-0.05,0.06
8.638,0.02,0.00,-0.09,0.10
8.648,0.03,-0.02,-0.10,0.10
8.658,-0.02,-0.02,-0.06,0.07
8.668,-0.04,0.00,-0.00,0.04
8.678,-0.04,0.02,0.02,0.04
8.688,0.02,0.01,0.02,0.03
8.698,0.04,0.02,0.03,0.05
8.708,0.04,-0.01,0.03,0.05
8.718,0.02,-0.01,0.03,0.04
8.728,-0.01,-0.01,-0.02,0.03
8.738,-0.03,0.01,-0.05,0.06
8.748,-0.03,0.01,-0.08,0.08
8.758,-0.01,0.02,-0.07,0.08
8.768,-0.01,0.02,-0.04,0.04
8.778,-0.02,0.03,0.01,0.03
8.788,-0.03,0.02,0.02,0.04
8.798,-0.02,0.03,0.05,0.06
8.808,-0.00,0.03,0.07,0.07
8.818,-0.01,0.00,0.05,0.05
8.828,-0.01,0.01,0.01,0.02
8.838,0.01,0.01,-0.01,0.02
8.848,0.01,0.01,-0.03,0.03
8.858,-0.01,0.01,-0.02,0.02
8.868,0.02,0.01,0.01,0.03
8.878,0.04,0.02,0.06,0.07
8.888,-0.02,0.02,0.09,0.10
8.898,-0.03,0.02,0.10,0.11
8.908,0.02,0.02,0.04,0.05
8.918,0.04,0.00,-0.02,0.04
8.928,0.03,-0.00,-0.06,0.07
8.938,0.02,-0.01,-0.06,0.06
8.948,-0.00,0.01,-0.02,0.03
8.958,-0.01,0.01,-0.00,0.02
8.968,-0.00,0.01,0.03,0.03
8.978,0.01,-0.00,0.03,0.04
8.988,0.02,-0.02,0.04,0.05
8.998,0.01,-0.04,-0.01,0.04
9.008,0.00,-0.02,-0.01,0.02
9.018,0.00,-0.02,0.00,0.02
9.028,0.02,-0.02,-0.02,0.03
9.038,0.01,0.00,-0.04,0.04
9.048,0.01,0.01,-0.02,0.02
9.058,-0.00,0.01,-0.01,0.01
9.068,-0.01,0.02,0.01,0.03
9.078,-0.03,0.03,0.02,0.05
9.088,-0.03,0.03,0.02,0.05
9.098,-0.02,0.03,0.02,0.04
9.108,0.00,0.01,0.02,0.02
9.118,-0.02,-0.01,0.02,0.03
9.128,-0.01,-0.01,0.00,0.01
9.138,0.02,-0.01,0.01,0.02
9.148,0.03,0.01,0.01,0.03
9.158,0.01,-0.02,-0.01,0.02
9.168,0.02,0.00,0.00,0.02
9.178,0.01,0.00,-0.02,0.02
9.188,-0.00,-0.00,-0.02,0.02
9.198,0.00,0.01,0.00,0.01
9.208,0.03,0.00,0.01,0.03
9.218,0.00,-0.01,0.01,0.02
9.228,0.02,-0.02,0.01,0.03
9.238,0.02,-0.02,-0.02,0.03
9.248,0.02,-0.01,-0.02,0.03
9.258,0.02,0.01,-0.02,0.03
9.268,0.01,-0.00,-0.02,0.02
9.278,0.01,0.01,-0.01,0.02
9.289,-0.00,0.01,-0.02,0.02
9.298,0.02,-0.02,-0.00,0.03
9.308,0.01,0.01,0.02,0.03
9.319,-0.01,0.01,0.01,0.02
9.328,-0.00,0.02,0.01,0.02
9.338,-0.00,0.01,0.01,0.02
9.348,-0.02,0.02,0.02,0.03
9.358,0.00,0.01,-0.02,0.03
9.368,0.00,0.02,-0.04,0.04
9.378,0.00,0.02,-0.02,0.03
9.388,0.00,0.02,-0.04,0.05
9.399,0.03,-0.01,-0.02,0.04
9.408,0.01,-0.03,-0.02,0.04
9.419,-0.01,-0.03,0.05,0.06
9.429,-0.02,0.02,0.06,0.06
9.439,0.02,0.05,0.03,0.07
9.449,0.06,0.01,-0.03,0.07
9.459,0.03,-0.03,-0.07,0.08
9.469,0.01,-0.03,-0.05,0.06
9.479,-0.03,0.01,-0.00,0.03
9.489,-0.00,-0.00,-0.00,0.00
9.499,0.02,-0.02,0.02,0.03
9.509,0.04,-0.03,0.03,0.06
9.519,0.04,-0.01,0.05,0.06
9.529,0.02,-0.01,0.02,0.03
9.539,-0.03,-0.00,-0.01,0.03
9.549,-0.02,-0.00,-0.04,0.05
9.559,-0.01,-0.01,-0.06,0.06
9.569,-0.03,-0.00,-0.06,0.07
9.579,0.00,0.01,-0.02,0.02
9.589,-0.02,0.01,0.02,0.03
9.599,-0.01,0.02,0.05,0.05
9.609,-0.02,0.01,0.05,0.06
9.619,-0.02,0.02,0.05,0.06
9.629,-0.00,0.02,0.04,0.04
9.639,0.02,0.01,0.02,0.03
9.649,-0.00,0.03,0.02,0.03
9.659,0.00,0.01,0.02,0.02
9.669,-0.00,0.01,0.02,0.02
9.679,0.01,0.01,0.02,0.03
9.689,0.04,0.01,0.00,0.04
9.699,0.01,0.02,0.02,0.02
9.709,-0.01,0.00,0.04,0.04
9.719,0.01,0.00,-0.00,0.01
9.729,0.03,-0.01,-0.04,0.05
9.739,0.02,0.00,-0.08,0.08
9.749,0.02,-0.01,-0.05,0.06
9.759,-0.01,-0.01,-0.03,0.03
9.769,-0.03,-0.01,0.00,0.03
9.779,-0.01,-0.02,0.02,0.03
9.789,0.01,-0.02,0.05,0.06
9.799,0.03,-0.04,0.04,0.06
9.809,0.03,-0.03,0.03,0.05
9.819,0.03,-0.02,0.02,0.04
9.829,0.02,-0.01,0.01,0.02
9.839,-0.00,-0.00,-0.00,0.01
9.849,-0.02,0.00,-0.01,0.02
9.859,-0.01,0.03,-0.02,0.04
9.869,0.01,0.01,-0.03,0.04
9.879,0.01,0.02,-0.03,0.04
9.889,-0.01,0.01,-0.01,0.02
9.899,-0.03,0.01,-0.00,0.03
9.909,-0.02,0.03,0.01,0.04
9.919,-0.03,0.03,-0.01,0.04
9.929,-0.01,0.02,-0.01,0.03
9.939,-0.01,-0.01,0.00,0.01
9.949,0.00,0.00,0.03,0.03
9.959,-0.01,-0.00,0.03,0.03
9.969,0.01,0.00,0.01,0.02
9.979,0.04,0.01,-0.00,0.04
9.989,0.02,-0.00,-0.02,0.02
9.999,0.02,-0.01,0.00,0.02
10.009,0.02,-0.02,0.02,0.03
10.019,0.00,-0.03,0.02,0.04
10.029,0.01,-0.02,0.01,0.03
10.039,0.01,-0.02,0.03,0.04
10.049,-0.01,-0.01,0.01,0.02
10.059,-0.01,-0.02,-0.02,0.02
10.069,0.00,-0.00,-0.03,0.03
10.079,0.00,0.01,-0.03,0.03
10.089,0.01,0.02,-0.03,0.03
10.099,0.00,0.01,-0.03,0.03
10.109,0.01,-0.01,-0.04,0.04
10.119,0.00,-0.00,-0.05,0.05
10.129,-0.00,-0.00,-0.05,0.05
10.139,0.01,0.01,-0.07,0.07
10.149,-0.03,0.02,-0.06,0.07
10.159,-0.03,0.03,-0.06,0.07
10.169,-0.01,0.04,-0.05,0.06
10.179,-0.02,0.03,-0.04,0.05
10.189,-0.00,0.01,-0.07,0.07
10.199,0.03,-0.01,-0.11,0.11
10.209,-0.01,-0.04,-0.08,0.09
10.219,-0.02,0.01,-0.03,0.04
10.229,-0.02,0.04,-0.03,0.05
10.239,0.03,0.01,-0.05,0.06
10.249,0.04,-0.03,-0.10,0.11
10.259,0.02,-0.05,-0.08,0.10
10.269,-0.03,-0.04,-0.03,0.06
10.279,-0.02,-0.02,-0.02,0.03
10.289,0.00,-0.02,-0.02,0.03
10.299,0.04,-0.02,-0.04,0.06
10.309,0.05,-0.01,-0.06,0.08
10.319,0.06,-0.00,-0.05,0.08
10.329,0.00,0.02,-0.04,0.05
10.339,-0.03,0.03,-0.04,0.05
10.349,-0.04,0.03,-0.04,0.06
10.359,-0.05,0.03,-0.05,0.08
10.369,-0.03,0.03,-0.02,0.05
10.379,-0.02,0.03,0.03,0.04
10.389,-0.01,0.03,0.06,0.07
10.399,-0.00,0.03,0.10,0.10
10.409,-0.01,0.03,0.09,0.09
10.419,-0.00,0.04,0.06,0.07
10.429,-0.00,0.03,0.02,0.04
10.439,0.00,0.02,-0.01,0.03
10.449,0.00,0.02,-0.03,0.03
10.459,-0.02,0.03,-0.04,0.05
10.469,-0.01,0.02,-0.03,0.03
10.479,0.01,-0.00,-0.01,0.02
10.489,-0.00,-0.01,0.03,0.03
10.500,-0.02,0.00,0.10,0.10
10.510,-0.03,0.00,0.12,0.12
10.519,0.00,0.02,0.09,0.09
10.529,0.05,-0.00,0.03,0.05
10.540,0.06,-0.03,-0.04,0.07
10.550,0.01,-0.04,-0.04,0.05
10.560,0.01,-0.04,-0.01,0.04
10.570,-0.00,-0.04,0.02,0.04
10.580,-0.00,-0.04,0.04,0.06
10.590,0.02,-0.04,0.04,0.06
10.600,0.04,-0.04,0.03,0.06
10.610,0.03,-0.04,0.00,0.06
10.620,0.03,-0.04,-0.02,0.05
10.630,0.01,-0.03,-0.02,0.04
10.640,0.00,-0.02,-0.05,0.05
10.650,0.01,-0.02,-0.05,0.05
10.660,-0.00,-0.00,-0.04,0.04
10.670,0.01,0.03,-0.02,0.04
10.680,-0.01,0.04,-0.00,0.04
10.690,-0.02,0.06,0.01,0.06
10.700,-0.03,0.06,0.01,0.07
10.710,-0.03,0.04,0.00,0.05
10.720,-0.01,0.02,0.01,0.02
10.730,-0.01,0.02,-0.00,0.02
10.740,-0.01,0.02,0.01,0.02
10.750,0.01,0.00,-0.01,0.01
10.760,0.03,-0.01,-0.00,0.03
10.770,0.02,-0.00,0.01,0.02
10.780,0.00,0.00,0.01,0.01
10.790,0.01,-0.02,0.02,0.03
10.800,0.01,-0.01,-0.00,0.02
10.810,0.00,-0.03,-0.03,0.04
10.820,0.00,-0.02,-0.02,0.04
10.830,0.01,-0.03,-0.01,0.03
10.840,0.00,-0.01,0.02,0.03
10.850,0.01,-0.03,0.01,0.03
10.860,0.02,-0.03,0.00,0.03
10.870,0.01,-0.00,-0.00,0.01
10.880,0.03,-0.00,-0.01,0.03
10.890,0.02,0.01,-0.01,0.02
10.900,0.03,0.01,-0.01,0.04
10.910,0.01,0.00,0.00,0.01
10.920,-0.01,-0.00,0.00,0.01
10.930,0.00,0.01,-0.01,0.01
10.940,0.01,0.01,-0.00,0.01
10.950,-0.01,0.02,-0.01,0.02
10.960,0.01,-0.01,-0.04,0.04
10.970,0.00,-0.01,-0.06,0.06
10.980,-0.01,-0.03,-0.01,0.04
10.990,-0.04,-0.02,0.04,0.06
11.000,-0.03,0.03,0.04,0.06
11.010,0.01,0.04,-0.03,0.05
11.020,0.04,-0.00,-0.11,0.12
11.030,0.04,-0.02,-0.10,0.11
11.040,0.01,-0.02,-0.07,0.07
11.050,-0.02,-0.01,0.01,0.02
11.060,0.00,0.01,0.07,0.07
11.070,0.04,-0.01,0.08,0.09
11.080,0.07,-0.01,0.04,0.08
11.090,0.06,-0.01,0.00,0.06
11.100,0.01,0.01,-0.03,0.04
11.110,-0.00,0.02,-0.08,0.08
11.120,-0.03,0.02,-0.09,0.09
11.130,-0.02,0.02,-0.07,0.07
11.140,-0.02,0.02,-0.04,0.05
11.150,0.01,0.01,0.01,0.02
11.160,0.01,-0.00,0.03,0.03
11.170,-0.01,0.01,0.05,0.05
11.180,-0.00,0.00,0.05,0.05
11.190,0.02,0.01,0.02,0.03
11.200,-0.02,0.01,0.01,0.03
11.210,-0.00,0.01,0.00,0.01
11.220,0.01,-0.01,0.01,0.01
11.230,0.00,-0.01,0.03,0.04
11.240,0.01,-0.00,0.01,0.02
11.250,0.02,0.01,0.04,0.05
11.260,0.03,-0.01,0.07,0.08
11.270,0.03,-0.01,0.08,0.08
11.280,0.01,0.02,0.07,0.08
11.290,0.01,0.01,0.06,0.06
11.300,0.02,0.02,-0.02,0.03
11.310,0.04,0.00,-0.05,0.07
11.320,0.03,0.01,-0.07,0.08
11.330,-0.00,0.01,-0.05,0.05
11.340,-0.01,-0.01,-0.01,0.02
11.350,0.01,0.00,0.02,0.02
11.360,0.02,-0.01,0.03,0.04
11.370,0.02,-0.02,0.05,0.06
11.380,0.04,-0.03,0.04,0.06
11.390,0.03,-0.02,0.01,0.04
11.400,0.03,-0.03,-0.02,0.05
11.410,0.03,-0.02,-0.02,0.04
11.420,0.02,-0.00,-0.02,0.03
11.430,0.02,0.02,-0.02,0.04
11.440,0.00,0.01,-0.03,0.03
11.450,-0.00,0.01,-0.00,0.01
11.460,-0.02,0.01,0.01,0.02
11.470,-0.04,0.01,0.01,0.04
11.480,-0.04,0.00,0.01,0.05
11.490,-0.01,0.01,0.00,0.02
11.500,-0.02,0.00,0.01,0.02
11.510,-0.01,-0.01,0.01,0.02
11.520,0.01,-0.03,0.01,0.03
11.530,0.00,-0.01,0.02,0.02
11.540,0.01,-0.01,0.01,0.02
11.550,0.02,-0.01,-0.00,0.03
11.560,0.02,0.00,-0.00,0.02
11.570,0.02,-0.01,0.00,0.02
11.580,-0.00,0.01,-0.00,0.01
11.590,0.00,-0.00,-0.02,0.02
11.601,-0.01,-0.01,-0.02,0.03
11.610,0.01,0.00,0.01,0.01
11.621,0.00,-0.00,0.01,0.01
11.631,0.03,-0.01,0.01,0.03
11.641,0.03,-0.01,0.02,0.04
11.650,0.02,0.00,-0.01,0.02
11.661,0.02,-0.00,-0.02,0.03
11.671,0.03,0.00,-0.02,0.04
11.681,0.01,-0.00,-0.02,0.03
11.691,-0.00,0.01,-0.01,0.01
11.701,-0.01,-0.01,-0.01,0.01
11.711,-0.03,-0.01,0.01,0.03
11.721,-0.02,0.01,-0.01,0.02
11.731,-0.01,0.01,0.00,0.02
11.741,-0.01,0.01,0.01,0.02
11.751,0.02,0.01,-0.03,0.04
11.761,0.02,-0.01,-0.07,0.07
11.771,0.02,-0.03,-0.07,0.08
11.781,-0.01,-0.02,-0.03,0.04
11.791,-0.05,0.01,-0.01,0.05
11.801,-0.01,0.02,-0.04,0.04
11.811,0.02,0.00,-0.07,0.07
11.821,0.03,-0.02,-0.09,0.09
11.831,0.01,-0.01,-0.03,0.03
11.841,0.01,0.01,0.04,0.05
11.851,0.01,0.01,0.07,0.07
11.861,0.03,-0.00,0.04,0.05
11.871,0.06,-0.03,0.03,0.08
11.881,0.06,-0.04,0.03,0.08
11.891,0.05,-0.01,0.01,0.05
11.901,0.02,-0.02,-0.02,0.03
11.911,-0.01,0.00,-0.06,0.06
11.921,-0.02,0.01,-0.06,0.06
11.931,0.00,0.03,-0.02,0.04
11.941,-0.02,0.03,0.02,0.04
11.951,-0.01,0.04,0.02,0.05
11.961,-0.02,0.04,0.04,0.06
11.971,-0.03,0.02,0.03,0.05
11.981,-0.02,0.02,0.00,0.03
11.991,-0.04,0.02,-0.00,0.04
12.001,-0.03,-0.01,-0.00,0.03
12.011,-0.04,-0.00,-0.00,0.04
12.021,-0.03,0.01,0.02,0.04
12.031,-0.02,-0.00,0.00,0.02
12.041,0.00,-0.02,0.00,0.02
12.051,0.03,-0.01,0.00,0.03
12.061,0.03,0.00,0.03,0.04
12.071,-0.01,0.02,0.06,0.06
12.081,-0.01,0.02,0.06,0.06
12.091,0.02,0.00,0.00,0.02
12.101,0.04,-0.00,-0.05,0.06
12.111,0.05,0.00,-0.08,0.10
12.121,0.01,0.01,-0.07,0.07
12.131,-0.01,-0.01,-0.06,0.06
12.141,-0.02,-0.01,-0.04,0.04
12.151,-0.00,-0.02,-0.01,0.02
12.161,0.01,-0.02,-0.01,0.03
12.171,0.02,-0.03,0.00,0.04
12.181,0.03,-0.03,-0.00,0.05
12.191,-0.00,-0.01,-0.00,0.01
12.201,-0.01,-0.01,-0.00,0.01
12.211,-0.01,0.01,0.01,0.01
12.221,-0.01,-0.00,0.01,0.01
12.231,-0.02,-0.02,-0.01,0.03
12.241,-0.01,-0.00,-0.00,0.01
12.251,-0.02,0.01,0.02,0.03
12.261,-0.03,0.01,0.02,0.03
12.271,-0.03,0.01,-0.00,0.03
12.281,-0.03,0.01,0.01,0.03
12.291,-0.02,0.02,0.01,0.04
12.301,-0.03,0.01,0.01,0.03
12.311,-0.01,-0.00,0.00,0.01
12.321,-0.00,-0.02,-0.00,0.02
12.331,-0.01,-0.02,-0.02,0.03
12.341,-0.00,-0.00,0.00,0.00
12.351,-0.01,0.00,0.02,0.02
12.361,-0.00,-0.00,0.02,0.02
12.371,0.00,0.00,-0.02,0.02
12.381,0.00,-0.02,-0.02,0.03
12.391,0.02,-0.02,-0.02,0.03
12.401,0.01,-0.01,-0.07,0.07
12.411,0.02,-0.00,-0.07,0.07
12.421,-0.01,0.00,-0.05,0.06
12.431,-0.01,0.00,-0.05,0.05
12.441,-0.02,0.01,-0.04,0.05
12.451,-0.00,0.01,-0.04,0.04
12.461,-0.03,0.01,-0.01,0.03
12.471,-0.00,0.01,-0.01,0.02
12.481,0.03,-0.00,-0.09,0.10
12.491,0.02,-0.03,-0.13,0.13
12.501,-0.01,-0.03,-0.10,0.11
12.511,-0.03,0.01,-0.07,0.08
12.521,-0.03,0.01,-0.09,0.10
12.531,-0.02,-0.00,-0.06,0.07
12.541,0.03,-0.01,-0.07,0.08
12.551,0.01,-0.02,-0.02,0.03
12.561,0.00,-0.01,0.02,0.03
12.571,0.01,-0.02,0.06,0.07
12.581,0.01,0.01,0.05,0.05
12.591,0.05,0.01,0.04,0.06
12.602,0.05,-0.01,0.02,0.05
12.611,0.02,-0.02,0.02,0.03
12.621,-0.01,-0.01,0.00,0.01
12.631,-0.04,-0.00,-0.03,0.05
12.641,-0.04,0.00,-0.06,0.07
12.651,-0.02,0.01,-0.09,0.09
12.661,-0.01,-0.01,-0.08,0.08
12.671,-0.01,0.01,-0.04,0.05
12.681,-0.02,0.00,0.01,0.02
12.691,-0.03,0.01,0.04,0.05
12.701,-0.04,0.01,0.05,0.06
12.712,-0.02,0.00,0.06,0.06
12.722,-0.00,0.00,0.04,0.04
12.732,-0.01,0.01,0.03,0.03
12.742,-0.00,0.00,-0.01,0.01
12.752,0.01,0.01,-0.00,0.01
12.762,0.00,0.01,-0.01,0.02
12.772,0.03,0.00,-0.00,0.03
12.782,0.02,0.01,0.05,0.06
12.792,0.00,0.01,0.11,0.11
12.802,0.01,0.02,0.10,0.10
12.812,0.03,-0.01,0.05,0.05
12.822,0.04,-0.03,-0.04,0.06
12.832,0.04,-0.03,-0.08,0.10
12.842,0.03,-0.01,-0.08,0.08
12.852,-0.01,-0.01,-0.04,0.05
12.862,-0.03,0.01,0.01,0.03
12.872,-0.02,0.00,0.04,0.04
12.882,0.02,-0.01,0.03,0.04
12.892,0.02,-0.01,0.01,0.02
12.902,0.02,-0.02,-0.02,0.03
12.912,0.01,-0.01,-0.05,0.05
12.922,-0.02,-0.02,-0.05,0.06
12.932,-0.01,-0.00,-0.05,0.05
12.942,-0.02,0.00,-0.03,0.03
12.952,-0.01,0.00,0.01,0.01
12.962,-0.00,0.00,0.02,0.02
12.972,-0.01,0.01,0.02,0.02
12.982,0.00,0.02,0.03,0.03
12.992,-0.01,0.01,0.02,0.02
13.002,-0.02,0.02,0.00,0.03
13.012,0.01,0.01,-0.00,0.02
13.022,0.01,-0.00,-0.02,0.02
13.032,-0.01,0.01,0.01,0.01
13.042,0.01,0.00,-0.00,0.01
13.052,0.01,0.00,0.01,0.02
13.062,0.02,-0.01,0.01,0.02
13.072,0.01,-0.00,0.00,0.01
13.082,-0.01,0.01,0.01,0.01
13.092,0.00,-0.01,0.01,0.02
13.102,0.01,-0.02,0.02,0.03
13.112,0.01,-0.00,-0.00,0.01
13.122,0.02,-0.01,-0.01,0.03
13.132,0.01,-0.01,-0.01,0.01
13.142,0.01,-0.01,-0.02,0.02
13.152,0.01,0.01,-0.01,0.02
13.162,0.03,0.01,-0.04,0.05
13.172,-0.01,0.02,-0.03,0.03
13.182,0.02,0.01,-0.03,0.04
13.192,0.03,-0.02,-0.06,0.07
13.202,0.03,-0.04,-0.05,0.07
13.212,-0.03,-0.03,-0.02,0.05
13.222,-0.02,0.01,0.02,0.03
13.232,-0.00,0.02,0.00,0.02
13.242,0.03,0.02,-0.06,0.07
13.252,0.04,-0.00,-0.11,0.11
13.262,0.01,-0.02,-0.08,0.09
13.272,-0.02,-0.03,-0.03,0.05
13.282,-0.03,-0.02,0.02,0.05
13.292,-0.02,-0.03,0.04,0.05
13.302,0.02,-0.02,0.02,0.04
13.312,0.06,-0.03,0.01,0.07
13.322,0.06,-0.02,0.03,0.07
13.332,0.02,-0.00,0.00,0.02
13.342,-0.01,0.00,-0.04,0.05
13.352,-0.01,0.02,-0.13,0.13
13.362,-0.00,0.01,-0.13,0.13
13.372,-0.00,0.01,-0.07,0.07
13.382,-0.02,0.03,-0.01,0.04
13.392,-0.03,0.02,0.05,0.06
13.402,-0.03,0.02,0.07,0.08
13.412,-0.03,0.01,0.06,0.07
13.422,-0.02,0.01,0.07,0.07
13.432,-0.01,-0.00,0.05,0.05
13.442,0.02,-0.00,-0.01,0.02
13.452,0.01,-0.02,-0.03,0.03
13.462,0.01,0.00,-0.01,0.01
13.472,0.01,0.02,0.00,0.02
13.482,0.02,-0.01,0.04,0.04
13.492,0.04,0.00,0.03,0.05
13.502,0.02,0.02,0.08,0.08
13.512,-0.01,0.02,0.09,0.09
13.522,0.01,0.02,0.06,0.06
13.532,0.03,-0.01,-0.03,0.04
13.542,0.05,-0.03,-0.09,0.11
13.552,0.03,-0.01,-0.10,0.10
13.562,-0.02,-0.01,-0.06,0.07
13.572,-0.02,0.00,-0.02,0.03
13.582,0.00,0.01,0.01,0.02
13.592,0.00,0.00,0.05,0.05
13.602,0.02,-0.02,0.06,0.07
13.612,0.00,-0.02,0.04,0.05
13.622,0.03,-0.01,0.02,0.04
13.632,0.01,-0.02,-0.01,0.02
13.642,0.00,-0.00,-0.03,0.03
13.652,0.01,-0.01,-0.03,0.03
13.662,0.00,-0.00,-0.04,0.04
13.672,0.01,-0.00,-0.02,0.03
13.682,-0.00,-0.01,-0.00,0.01
13.692,0.00,0.01,0.02,0.02
13.702,-0.02,0.01,0.03,0.04
13.712,-0.01,0.02,0.01,0.03
13.722,0.01,0.01,0.01,0.01
13.732,-0.00,0.01,0.01,0.01
13.742,0.01,-0.01,0.01,0.01
13.752,-0.00,-0.02,-0.01,0.02
13.762,0.00,-0.01,-0.01,0.02
13.772,0.00,0.01,-0.02,0.02
13.782,-0.01,-0.00,-0.01,0.02
13.792,-0.02,0.00,0.00,0.02
13.803,0.01,-0.00,-0.00,0.01
13.812,0.03,-0.01,-0.03,0.04
13.823,0.03,-0.02,-0.02,0.03
13.832,0.02,0.01,-0.01,0.03
13.843,0.02,0.01,-0.02,0.03
13.852,0.02,-0.01,0.01,0.02
13.863,0.02,-0.00,0.03,0.03
13.873,0.02,-0.01,0.04,0.04
13.883,0.03,-0.02,0.02,0.04
13.893,0.03,-0.03,0.01,0.04
13.903,0.03,-0.02,0.03,0.04
13.913,0.03,-0.01,0.04,0.05
13.923,0.03,-0.00,0.04,0.05
13.933,0.01,0.02,0.01,0.03
13.943,0.03,0.02,0.00,0.03
13.953,-0.01,0.01,-0.00,0.01
13.963,-0.01,-0.00,-0.04,0.05
13.973,-0.01,-0.00,-0.07,0.07
13.983,-0.02,-0.01,-0.03,0.04
13.993,-0.02,-0.04,-0.02,0.05
14.003,-0.04,0.00,0.01,0.04
14.013,-0.01,0.02,0.01,0.03
14.023,0.06,-0.00,-0.03,0.06
14.033,0.07,-0.04,-0.09,0.13
14.043,0.05,-0.03,-0.10,0.11
14.053,0.02,-0.02,-0.02,0.03
14.063,-0.00,0.01,0.04,0.04
14.073,0.00,0.00,0.04,0.04
14.083,0.04,0.00,0.06,0.07
14.093,0.05,0.01,0.05,0.07
14.103,0.02,-0.00,0.03,0.04
14.113,0.01,-0.00,0.01,0.01
14.123,-0.02,-0.00,-0.03,0.04
14.133,-0.00,-0.00,-0.04,0.04
14.143,-0.01,0.02,-0.03,0.04
14.153,0.02,0.02,-0.01,0.03
14.163,0.02,0.02,0.00,0.02
14.173,0.00,0.03,0.01,0.03
14.183,-0.00,0.01,0.03,0.03
14.193,-0.02,0.02,0.01,0.04
14.203,-0.04,0.02,0.01,0.04
14.213,-0.03,0.00,0.02,0.03
14.223,-0.02,-0.01,0.01,0.03
14.233,-0.02,-0.01,0.01,0.02
14.243,-0.02,-0.01,0.01,0.03
14.253,0.01,-0.01,0.02,0.03
14.263,0.02,-0.03,0.02,0.04
14.273,0.04,-0.01,0.03,0.04
14.283,0.03,0.01,0.05,0.06
14.293,0.01,0.01,0.06,0.06
14.303,0.01,0.00,0.03,0.04
14.313,0.04,0.00,-0.01,0.04
14.323,0.05,0.00,-0.06,0.08
14.333,0.04,0.01,-0.06,0.08
14.343,0.03,0.02,-0.03,0.05
14.353,-0.01,0.01,0.00,0.02
14.363,-0.00,0.02,0.01,0.02
14.373,0.01,0.01,0.01,0.02
14.383,0.03,-0.01,-0.00,0.03
14.393,0.03,-0.02,-0.04,0.05
14.403,0.03,-0.03,-0.07,0.08
14.413,0.03,-0.02,-0.08,0.09
14.423,-0.00,-0.02,-0.04,0.04
14.433,-0.02,-0.01,-0.01,0.02
14.443,-0.01,0.01,-0.00,0.01
14.453,-0.02,0.01,0.01,0.03
14.463,-0.02,0.02,0.02,0.04
14.473,-0.01,0.01,0.03,0.03
14.483,-0.01,0.02,0.03,0.04
14.493,0.02,0.01,0.00,0.02
14.503,-0.01,-0.00,-0.01,0.01
14.513,-0.01,-0.01,-0.02,0.02
14.523,-0.01,-0.00,-0.02,0.02
14.533,0.01,-0.02,-0.01,0.02
14.543,-0.01,-0.02,-0.01,0.02
14.553,0.02,-0.04,-0.02,0.05
14.563,0.01,-0.04,-0.00,0.04
14.573,0.04,-0.04,-0.01,0.06
14.583,0.01,-0.03,0.01,0.03
14.593,0.01,-0.01,0.04,0.04
14.603,0.00,-0.00,0.03,0.03
14.613,-0.00,-0.00,0.05,0.05
14.623,-0.01,0.02,0.07,0.08
14.633,0.03,0.00,0.06,0.06
14.643,0.04,-0.01,0.01,0.04
14.653,0.03,-0.02,-0.04,0.05
14.663,0.03,-0.02,-0.05,0.06
14.673,0.02,-0.00,-0.06,0.07
14.683,-0.01,-0.00,-0.08,0.08
14.693,-0.01,0.01,-0.10,0.10
14.703,0.01,0.02,-0.07,0.07
14.713,-0.03,0.04,-0.01,0.05
14.723,-0.03,0.03,0.06,0.07
14.733,0.01,0.02,0.01,0.03
14.743,0.03,-0.00,-0.06,0.06
14.753,-0.01,-0.05,-0.11,0.11
14.763,-0.01,-0.04,-0.11,0.12
14.773,-0.02,0.01,-0.09,0.09
14.783,0.01,0.01,-0.11,0.11
14.793,0.01,0.01,-0.13,0.13
14.803,0.01,0.02,-0.11,0.11
14.813,-0.02,0.02,-0.05,0.06
14.823,-0.03,0.03,0.01,0.04
14.833,-0.01,0.03,0.05,0.06
14.843,0.02,-0.01,0.04,0.04
14.853,0.06,0.00,-0.00,0.06
14.863,0.07,-0.00,0.01,0.08
14.873,0.04,-0.00,-0.01,0.04
14.884,0.00,0.01,-0.06,0.06
14.893,-0.03,0.01,-0.08,0.09
14.904,-0.02,0.02,-0.06,0.07
14.913,-0.04,0.02,-0.03,0.06
14.924,-0.05,0.02,-0.02,0.06
14.934,-0.04,-0.01,0.02,0.04
14.944,-0.03,-0.01,0.03,0.04
14.953,-0.03,-0.00,0.04,0.06
14.964,-0.03,-0.02,0.05,0.06
14.974,-0.02,-0.01,0.04,0.05
14.984,-0.01,-0.01,0.03,0.04
14.994,-0.01,-0.00,0.01,0.02
15.003,-0.01,0.00,-0.02,0.02
15.014,0.02,-0.01,-0.05,0.06
15.024,0.02,-0.00,-0.04,0.04
15.034,0.03,0.00,-0.03,0.04
15.044,0.02,0.00,0.01,0.02
15.054,-0.01,0.01,0.06,0.06
15.064,-0.01,0.01,0.06,0.06
15.074,0.02,0.02,0.00,0.03
15.084,0.05,0.00,-0.07,0.08
15.094,0.03,-0.02,-0.08,0.08
15.104,0.03,-0.01,-0.06,0.07
15.114,0.00,0.02,-0.02,0.03
15.124,0.00,0.01,0.02,0.02
15.134,0.02,0.01,0.01,0.02
15.144,0.02,-0.02,0.01,0.03
15.154,0.03,-0.01,0.01,0.04
15.164,0.03,-0.01,-0.03,0.04
15.174,0.00,-0.03,-0.05,0.05
15.184,-0.02,-0.01,-0.05,0.05
15.194,-0.03,0.00,-0.05,0.06
15.204,-0.03,0.01,-0.03,0.05
15.214,-0.02,0.01,-0.01,0.02
15.224,-0.00,0.03,0.03,0.04
15.234,-0.02,0.01,0.05,0.05
15.244,-0.01,0.03,0.04,0.05
15.254,-0.01,0.05,0.06,0.07
15.264,0.00,0.04,0.03,0.05
15.274,0.01,0.01,0.00,0.02
15.284,0.02,-0.01,-0.02,0.02
15.294,0.00,-0.03,-0.01,0.03
15.304,0.02,-0.03,-0.02,0.04
15.314,0.02,-0.02,0.00,0.02
15.324,0.01,-0.01,0.03,0.03
15.334,0.01,-0.01,0.02,0.03
15.344,0.01,-0.02,0.03,0.04
15.354,-0.00,-0.01,0.03,0.03
15.364,-0.02,-0.02,0.00,0.03
15.374,0.00,-0.02,-0.01,0.02
15.384,0.04,-0.02,-0.01,0.05
15.394,0.02,-0.00,-0.04,0.04
15.404,0.03,0.01,-0.04,0.05
15.414,0.02,0.00,-0.05,0.05
15.424,0.03,0.01,-0.03,0.04
15.434,0.01,0.01,-0.03,0.04
15.444,-0.00,0.01,-0.03,0.04
15.454,0.00,0.01,-0.02,0.03
15.464,-0.01,0.03,0.01,0.04
15.474,0.02,0.03,-0.02,0.04
15.484,0.01,0.01,-0.05,0.05
15.494,-0.00,-0.03,-0.05,0.06
15.504,-0.01,-0.04,-0.03,0.05
15.514,-0.05,0.02,-0.01,0.05
15.524,0.01,0.03,-0.08,0.08
15.534,0.04,0.01,-0.14,0.15
15.544,0.04,-0.01,-0.16,0.17
15.554,0.01,-0.02,-0.12,0.12
15.564,-0.02,0.00,-0.04,0.04
15.574,-0.01,-0.01,0.03,0.04
15.584,0.01,-0.01,0.04,0.04
15.594,0.02,0.00,0.05,0.05
15.604,0.05,-0.02,0.07,0.09
15.614,0.06,0.01,0.05,0.08
15.624,0.03,-0.00,0.01,0.03
15.634,0.03,0.00,-0.03,0.04
15.644,-0.01,0.01,-0.05,0.05
15.654,-0.02,0.02,-0.03,0.04
15.664,-0.01,0.02,-0.03,0.04
15.674,0.01,0.02,-0.01,0.02
15.684,-0.02,0.02,0.02,0.04
15.694,-0.01,0.00,0.05,0.05
15.704,-0.02,0.01,0.04,0.04
15.714,-0.01,0.01,0.01,0.02
15.724,0.01,0.00,-0.02,0.02
15.735,0.00,-0.00,-0.02,0.02
15.744,-0.00,-0.01,-0.04,0.04
15.755,-0.01,-0.01,-0.02,0.03
15.764,0.00,0.00,-0.01,0.01
15.774,0.02,0.02,-0.00,0.03
15.784,0.03,0.01,0.02,0.04
15.794,0.00,0.02,0.06,0.06
15.804,-0.00,0.03,0.10,0.11
15.814,0.02,0.02,0.06,0.06
15.824,0.05,-0.01,-0.01,0.05
15.834,0.08,-0.00,-0.07,0.10
15.844,0.05,-0.00,-0.08,0.10
15.854,0.01,0.01,-0.06,0.06
15.864,0.01,0.01,-0.03,0.04
15.874,-0.00,0.01,-0.01,0.02
15.884,0.01,0.00,0.01,0.02
15.894,0.02,-0.02,0.04,0.05
15.904,0.04,-0.03,0.03,0.06
15.914,0.03,-0.02,0.02,0.05
15.924,0.03,-0.01,-0.02,0.04
15.934,-0.00,-0.01,-0.03,0.03
15.944,0.00,-0.00,-0.03,0.04
15.954,0.02,0.01,-0.03,0.04
15.964,0.00,0.01,-0.02,0.02
15.974,-0.01,0.00,-0.00,0.01
15.984,-0.01,-0.00,0.03,0.03
15.994,-0.04,0.01,0.03,0.05
16.004,-0.03,0.01,0.02,0.04
16.014,-0.02,0.01,0.01,0.02
16.025,0.00,-0.01,-0.00,0.01
16.034,0.00,-0.01,-0.01,0.01
16.045,0.02,-0.01,0.01,0.02
16.054,0.01,-0.01,0.02,0.03
16.065,0.02,-0.01,0.02,0.04
16.074,0.02,0.00,0.02,0.03
16.085,0.01,-0.00,0.01,0.02
16.095,0.01,0.01,-0.02,0.02
16.105,0.02,-0.02,-0.05,0.05
16.114,0.04,0.00,-0.06,0.07
16.125,0.02,0.00,-0.06,0.07
16.135,0.02,0.00,-0.04,0.05
16.145,0.02,-0.01,-0.00,0.02
16.155,0.01,-0.00,0.02,0.02
16.165,0.00,-0.01,0.06,0.06
16.175,0.01,-0.00,0.07,0.07
16.185,0.01,-0.01,0.04,0.04
16.195,0.03,0.00,0.01,0.03
16.205,0.04,0.01,0.01,0.04
16.215,0.03,-0.01,0.01,0.03
16.225,0.01,-0.03,0.02,0.04
16.235,0.00,-0.01,-0.00,0.01
16.245,-0.01,-0.01,-0.02,0.02
16.255,0.00,-0.00,-0.04,0.04
16.265,0.01,0.00,-0.06,0.06
16.275,-0.01,0.02,-0.05,0.06
16.285,-0.00,-0.02,-0.08,0.08
16.295,-0.00,-0.03,-0.04,0.04
16.305,-0.02,-0.04,0.01,0.05
16.315,-0.04,-0.02,0.04,0.06
16.325,-0.02,0.02,0.06,0.06
16.335,0.02,0.03,-0.02,0.04
16.345,0.07,-0.01,-0.08,0.11
16.355,0.06,-0.02,-0.10,0.12
16.365,0.01,-0.01,-0.04,0.04
16.375,-0.02,0.03,0.05,0.06
16.385,0.01,0.00,0.08,0.08
16.395,0.01,0.00,0.08,0.08
16.405,0.04,-0.02,0.07,0.08
16.415,0.05,-0.02,0.05,0.08
16.425,0.02,-0.02,0.01,0.03
16.435,0.03,-0.01,-0.04,0.05
16.445,0.00,0.01,-0.06,0.06
16.455,-0.01,0.01,-0.06,0.06
16.465,-0.01,0.03,-0.04,0.05
16.475,-0.00,0.03,-0.02,0.04
16.485,-0.02,0.05,-0.00,0.05
16.495,-0.02,0.03,0.02,0.05
16.505,-0.01,0.01,0.02,0.03
16.515,-0.01,0.02,0.02,0.03
16.525,-0.02,0.01,0.00,0.02
16.535,-0.01,-0.01,-0.02,0.02
16.545,-0.01,-0.00,-0.02,0.03
16.555,-0.00,-0.01,-0.01,0.02
16.565,-0.00,-0.02,0.01,0.02
16.575,0.00,0.00,0.02,0.02
16.585,0.02,0.01,0.03,0.04
16.595,0.03,0.01,0.05,0.06
16.605,0.01,0.01,0.06,0.06
16.615,-0.00,0.01,0.03,0.03
16.625,0.02,-0.01,-0.04,0.05
16.635,0.03,-0.01,-0.07,0.08
16.645,0.04,-0.02,-0.07,0.08
16.655,0.02,0.00,-0.05,0.05
16.665,0.02,0.01,-0.02,0.03
16.675,0.01,0.02,0.02,0.03
16.685,0.02,0.00,0.02,0.03
16.695,0.02,-0.03,0.06,0.07
16.705,0.01,-0.03,0.06,0.06
16.715,0.00,-0.04,0.04,0.05
16.725,0.01,-0.02,0.01,0.02
16.735,0.01,-0.02,-0.03,0.04
16.745,0.02,-0.02,-0.02,0.03
16.755,0.00,0.01,-0.02,0.03
16.765,-0.01,0.02,-0.02,0.03
16.775,-0.01,0.03,-0.02,0.04
16.785,-0.01,0.02,-0.01,0.03
16.795,-0.03,0.03,-0.00,0.04
16.805,-0.02,0.03,0.01,0.03
16.815,-0.03,0.02,0.01,0.04
16.825,-0.02,-0.00,-0.00,0.02
16.835,-0.00,-0.02,-0.00,0.02
16.845,-0.01,-0.02,-0.02,0.03
16.855,-0.01,-0.00,-0.03,0.03
16.865,0.00,0.01,-0.00,0.01
16.875,0.01,0.00,-0.00,0.01
16.885,0.03,0.00,0.01,0.03
16.895,0.04,0.00,0.01,0.04
16.905,0.01,-0.00,0.01,0.01
16.915,0.02,-0.02,0.01,0.03
16.925,0.00,-0.01,-0.01,0.02
16.935,0.01,-0.02,-0.02,0.03
16.945,-0.01,-0.01,-0.04,0.04
16.955,-0.01,-0.02,-0.05,0.05
16.965,0.01,-0.01,-0.04,0.04
16.975,-0.01,-0.00,-0.05,0.05
16.985,-0.02,-0.00,-0.06,0.06
16.995,-0.02,0.01,-0.07,0.07
17.005,-0.00,0.00,-0.05,0.05
17.015,0.00,0.01,-0.06,0.06
17.026,0.00,0.01,-0.08,0.08
17.035,0.00,0.01,-0.09,0.09
17.045,-0.01,-0.00,-0.07,0.07
17.055,-0.02,0.00,-0.04,0.05
17.066,-0.02,0.00,-0.04,0.05
17.075,-0.03,0.01,-0.05,0.06
17.085,-0.01,0.01,-0.04,0.04
17.095,-0.02,0.02,0.00,0.03
17.106,-0.02,0.03,0.00,0.03
17.115,0.02,-0.00,-0.06,0.07
17.126,0.01,-0.04,-0.10,0.11
17.135,-0.03,-0.04,-0.08,0.09
17.146,-0.04,0.02,-0.03,0.06
17.156,-0.02,0.03,-0.02,0.04
17.166,0.00,0.01,-0.05,0.05
17.176,0.01,-0.03,-0.06,0.07
17.186,-0.01,-0.02,-0.03,0.04
17.196,-0.01,-0.01,0.03,0.03
17.206,-0.03,-0.01,0.08,0.08
17.216,0.00,-0.01,0.06,0.06
17.226,0.04,-0.02,0.06,0.07
17.236,0.04,-0.02,0.08,0.09
17.246,0.06,-0.01,0.04,0.07
17.256,0.01,0.01,0.01,0.02
17.266,-0.03,0.02,-0.03,0.05
17.276,-0.04,0.04,-0.05,0.07
17.286,-0.02,0.03,-0.03,0.05
17.296,-0.03,0.03,0.02,0.05
17.306,-0.03,0.03,0.04,0.06
17.316,-0.01,0.00,0.08,0.08
17.326,-0.00,0.02,0.09,0.09
17.336,-0.01,0.01,0.04,0.05
17.346,-0.02,0.02,-0.01,0.03
17.356,-0.01,0.01,-0.03,0.04
17.366,-0.02,0.02,-0.05,0.06
17.376,-0.03,0.02,-0.07,0.08
17.386,-0.01,0.00,-0.06,0.06
17.396,-0.00,-0.01,-0.04,0.04
17.406,-0.01,-0.00,-0.03,0.03
17.416,0.00,-0.01,0.00,0.01
17.426,-0.01,-0.00,0.06,0.06
17.436,-0.01,-0.01,0.07,0.08
17.446,0.01,-0.01,0.06,0.06
17.456,0.05,-0.02,-0.01,0.05
17.466,0.05,-0.01,-0.06,0.08
17.476,0.03,-0.02,-0.07,0.07
17.486,0.00,-0.01,-0.04,0.04
17.496,0.01,-0.02,-0.01,0.02
17.506,0.00,-0.02,0.01,0.02
17.516,0.01,-0.01,0.01,0.02
17.526,0.02,-0.02,0.02,0.03
17.536,0.01,-0.01,-0.00,0.01
17.546,-0.00,-0.00,-0.00,0.01
17.556,-0.00,0.00,-0.01,0.01
17.566,-0.04,0.01,-0.02,0.04
17.576,-0.02,0.02,-0.01,0.03
17.586,-0.03,0.02,-0.03,0.04
17.596,-0.02,0.01,-0.00,0.02
17.606,-0.01,0.03,0.00,0.04
17.616,-0.00,0.03,-0.01,0.03
17.626,-0.01,0.02,-0.00,0.02
17.636,-0.02,0.02,-0.01,0.03
17.646,-0.03,0.00,-0.02,0.03
17.656,-0.01,-0.01,-0.01,0.01
17.666,-0.02,-0.02,0.01,0.03
17.676,-0.00,-0.02,0.03,0.03
17.686,0.01,-0.00,0.03,0.03
17.696,0.03,-0.00,0.01,0.03
17.706,0.02,-0.01,-0.01,0.02
17.716,0.02,-0.01,-0.03,0.04
17.726,-0.00,0.01,-0.03,0.03
17.736,-0.02,0.00,-0.01,0.02
17.746,-0.01,-0.00,0.01,0.01
17.756,-0.02,-0.01,0.01,0.03
17.766,-0.01,-0.01,-0.00,0.01
17.776,-0.00,-0.01,0.00,0.01
17.786,0.00,-0.03,-0.02,0.03
17.796,0.01,-0.01,-0.02,0.03
17.806,0.01,-0.00,-0.02,0.03
17.816,0.02,-0.02,-0.04,0.05
17.826,0.01,-0.02,-0.05,0.06
17.836,-0.00,-0.01,-0.04,0.04
17.846,-0.01,0.00,-0.02,0.02
17.856,-0.01,0.02,-0.01,0.02
17.866,-0.02,0.02,0.00,0.02
17.876,-0.01,0.03,0.02,0.03
17.886,-0.01,0.03,0.04,0.05
17.896,0.00,0.03,-0.01,0.03
17.906,0.01,0.01,-0.05,0.05
17.916,0.01,-0.03,-0.04,0.06
17.926,-0.03,-0.03,-0.03,0.05
17.936,-0.06,0.01,0.01,0.06
17.946,-0.04,0.03,-0.01,0.05
17.956,0.03,0.02,-0.06,0.07
17.966,0.04,-0.02,-0.10,0.11
17.976,0.01,-0.04,-0.07,0.08
17.986,-0.01,-0.01,-0.02,0.03
17.996,-0.02,0.00,0.02,0.03
18.006,-0.00,-0.00,0.04,0.04
18.016,0.02,-0.01,0.02,0.03
18.026,0.07,-0.02,0.01,0.08
18.036,0.05,-0.02,-0.01,0.05
18.046,0.03,-0.03,-0.05,0.06
18.056,-0.02,-0.01,-0.07,0.07
18.066,-0.04,-0.00,-0.07,0.08
18.076,-0.04,0.01,-0.05,0.06
18.086,-0.04,0.00,0.00,0.04
18.096,-0.01,0.01,0.03,0.03
18.106,0.00,0.00,0.04,0.04
18.116,0.01,0.01,0.06,0.06
18.126,0.00,0.02,0.04,0.04
18.136,-0.00,0.02,-0.01,0.02
18.146,0.00,0.02,-0.04,0.04
18.156,-0.02,0.02,-0.04,0.05
18.167,-0.03,0.00,-0.03,0.04
18.176,-0.02,0.01,-0.05,0.05
18.187,-0.01,-0.02,-0.04,0.04
18.197,0.03,-0.00,0.01,0.03
18.207,0.04,0.01,0.01,0.04
18.217,0.04,-0.01,0.08,0.09
18.227,-0.01,0.01,0.11,0.11
18.237,0.02,-0.00,0.09,0.09
18.247,0.03,-0.01,0.03,0.05
18.257,0.05,-0.03,-0.02,0.06
18.267,0.05,0.00,-0.04,0.06
18.277,0.02,-0.01,0.00,0.02
18.287,0.01,0.01,0.04,0.04
18.297,0.00,0.00,0.04,0.04
18.307,0.03,-0.01,0.07,0.08
18.317,0.02,-0.01,0.05,0.06
18.327,0.01,-0.02,0.03,0.03
18.337,0.02,-0.01,-0.02,0.03
18.347,-0.02,-0.02,-0.05,0.05
18.357,-0.01,-0.02,-0.04,0.04
18.367,-0.01,0.01,-0.02,0.03
18.377,-0.02,0.03,-0.00,0.03
18.387,-0.02,0.02,-0.01,0.03
18.397,-0.01,0.02,0.01,0.02
18.407,-0.03,0.00,0.03,0.04
18.417,0.01,0.01,0.03,0.04
18.427,-0.01,0.00,0.02,0.02
18.437,-0.01,0.00,0.00,0.01
18.447,0.02,-0.00,0.00,0.02
18.457,0.03,-0.03,-0.01,0.05
18.467,0.01,-0.02,0.01,0.02
18.477,0.02,-0.02,0.02,0.03
18.487,0.03,-0.01,0.02,0.03
18.497,0.03,-0.00,-0.01,0.03
18.507,0.03,0.00,-0.00,0.03
18.517,0.05,0.00,-0.01,0.05
18.527,0.03,0.00,-0.01,0.03
18.537,0.01,-0.01,-0.02,0.03
18.547,-0.00,-0.03,-0.01,0.03
18.557,0.00,-0.00,-0.02,0.02
18.567,0.01,-0.01,-0.02,0.02
18.577,0.01,-0.02,-0.01,0.02
18.587,0.01,-0.01,0.00,0.01
18.597,0.02,-0.01,0.01,0.02
18.607,0.02,-0.00,-0.00,0.02
18.617,-0.00,0.01,-0.00,0.01
18.627,-0.01,0.00,-0.03,0.04
18.637,-0.02,-0.00,-0.02,0.02
18.647,-0.00,0.00,-0.04,0.04
18.657,-0.01,0.01,-0.03,0.03
18.667,0.00,-0.00,-0.01,0.01
18.677,-0.02,-0.01,0.00,0.02
18.687,-0.02,0.01,0.01,0.02
18.697,0.00,0.00,0.00,0.01
18.707,-0.02,-0.00,0.00,0.02
18.717,-0.02,0.02,-0.03,0.04
18.727,0.00,0.03,-0.01,0.03
18.737,0.02,0.01,-0.05,0.05
18.747,0.04,-0.00,-0.07,0.08
18.757,0.03,-0.04,-0.06,0.08
18.767,-0.00,-0.05,-0.04,0.06
18.777,-0.03,-0.02,0.01,0.04
18.787,-0.02,0.02,0.01,0.03
18.797,0.03,0.03,-0.07,0.08
18.807,0.04,-0.00,-0.08,0.09
18.817,0.02,-0.04,-0.08,0.09
18.827,-0.02,-0.01,-0.01,0.02
18.837,-0.05,-0.00,0.07,0.08
18.847,-0.01,0.01,0.05,0.06
18.857,0.02,-0.01,0.02,0.03
18.867,0.04,-0.03,0.02,0.06
18.877,0.03,-0.02,-0.01,0.04
18.887,0.02,-0.02,-0.03,0.03
18.897,-0.00,0.01,-0.03,0.03
18.907,-0.04,0.03,-0.04,0.07
18.917,-0.05,0.03,-0.05,0.07
18.927,-0.03,0.03,-0.03,0.06
18.937,-0.03,0.03,-0.03,0.05
18.947,-0.02,0.02,-0.00,0.03
18.957,-0.06,0.03,0.01,0.07
18.967,-0.05,0.02,0.00,0.06
18.977,-0.05,0.01,-0.01,0.05
18.987,-0.04,0.00,-0.01,0.04
18.997,-0.02,-0.02,-0.02,0.03
19.007,-0.02,-0.01,-0.03,0.04
19.017,-0.01,-0.00,-0.07,0.07
19.027,-0.00,0.02,-0.07,0.07
19.037,0.01,0.00,-0.05,0.05
19.047,0.04,0.00,-0.06,0.07
19.057,0.02,-0.00,-0.01,0.02
19.067,-0.00,0.00,0.04,0.04
19.077,-0.02,0.00,0.04,0.05
19.087,0.01,0.01,-0.01,0.02
19.097,0.05,-0.01,-0.07,0.09
19.107,0.04,-0.01,-0.09,0.10
19.117,0.01,0.00,-0.08,0.08
19.127,-0.00,0.00,-0.03,0.03
19.137,-0.01,0.01,-0.02,0.02
19.147,-0.00,-0.02,0.02,0.03
19.157,0.03,-0.02,0.02,0.04
19.167,0.03,-0.03,0.04,0.06
19.177,0.03,-0.02,0.02,0.04
19.187,0.00,-0.01,-0.01,0.01
19.197,0.00,-0.01,-0.04,0.04
19.207,-0.03,-0.02,-0.05,0.06
19.217,-0.04,-0.00,-0.05,0.06
19.227,-0.05,0.02,-0.03,0.06
19.237,-0.04,0.02,-0.02,0.05
19.247,-0.04,0.01,-0.00,0.04
19.257,-0.03,0.00,0.01,0.03
19.267,-0.02,0.03,0.01,0.04
19.278,0.00,0.02,-0.01,0.02
19.288,0.00,0.02,-0.03,0.03
19.298,-0.00,0.01,-0.03,0.03
19.308,0.00,0.01,-0.03,0.03
19.318,0.00,0.00,0.01,0.01
19.328,0.00,0.01,0.01,0.01
19.338,-0.00,-0.00,0.01,0.01
19.348,0.00,0.00,0.03,0.03
19.358,0.02,-0.00,0.02,0.03
19.368,0.01,-0.00,0.01,0.02
19.378,0.01,-0.01,0.00,0.02
19.388,0.01,-0.00,0.02,0.02
19.398,-0.01,-0.02,0.03,0.04
19.408,-0.01,-0.02,0.03,0.04
19.418,0.01,-0.03,0.00,0.04
19.428,0.03,-0.01,0.00,0.03
19.438,0.03,0.00,-0.03,0.04
19.448,0.00,0.01,-0.05,0.05
19.458,-0.00,0.02,-0.02,0.04
19.468,-0.04,0.04,0.01,0.06
19.478,-0.05,0.02,0.02,0.05
19.488,-0.04,0.01,0.01,0.05
19.498,-0.03,-0.01,0.04,0.05
19.508,-0.01,-0.02,-0.01,0.02
19.518,0.05,-0.04,-0.06,0.09
19.528,0.05,-0.06,-0.07,0.11
19.538,0.03,-0.08,-0.04,0.09
19.548,0.04,-0.05,0.04,0.08
19.558,0.07,-0.02,0.06,0.09
19.568,0.09,-0.02,0.01,0.10
19.578,0.13,-0.03,-0.03,0.14
19.588,0.13,-0.04,-0.02,0.14
19.598,0.11,-0.04,0.03,0.12
19.608,0.12,-0.02,0.09,0.15
19.618,0.12,-0.01,0.09,0.15
19.628,0.14,0.00,0.09,0.17
19.638,0.17,-0.00,0.04,0.18
19.648,0.17,-0.02,-0.01,0.17
19.658,0.14,-0.04,-0.10,0.18
19.668,0.15,-0.06,-0.15,0.22
19.678,0.12,-0.05,-0.14,0.19
19.688,0.03,-0.04,-0.11,0.12
19.698,-0.12,-0.03,-0.01,0.12
19.708,-0.21,0.03,0.08,0.23
19.718,-0.31,0.11,0.13,0.36
19.728,-0.44,0.16,0.13,0.48
19.738,-0.46,0.22,0.03,0.51
19.748,-0.50,0.25,-0.03,0.56
19.758,-0.44,0.24,-0.09,0.51
19.768,-0.34,0.20,-0.12,0.42
19.778,-0.25,0.13,-0.14,0.31
19.788,-0.13,0.08,-0.13,0.20
19.798,-0.02,0.06,-0.08,0.11
19.808,0.11,0.08,-0.05,0.14
19.818,0.20,0.12,-0.01,0.24
19.828,0.26,0.13,0.03,0.29
19.838,0.26,0.11,0.09,0.30
19.848,0.26,0.08,0.10,0.29
19.858,0.28,0.00,0.05,0.29
19.868,0.22,-0.06,-0.02,0.23
19.878,0.11,-0.11,-0.08,0.18
19.888,0.02,-0.17,-0.09,0.19
19.898,-0.04,-0.18,-0.08,0.20
19.908,-0.06,-0.22,-0.08,0.24
19.918,-0.06,-0.23,-0.01,0.24
19.928,-0.05,-0.25,0.08,0.27
19.938,0.00,-0.24,0.13,0.27
19.948,0.04,-0.22,0.12,0.25
19.958,0.06,-0.21,0.07,0.23
19.968,0.10,-0.19,0.03,0.21
19.978,0.06,-0.14,-0.04,0.16
19.988,0.00,-0.11,-0.09,0.14
19.998,-0.04,-0.09,-0.10,0.14
20.008,-0.05,-0.08,-0.08,0.13
20.018,-0.02,-0.07,-0.06,0.09
20.028,-0.03,-0.04,-0.09,0.10
20.038,-0.02,-0.02,-0.07,0.08
20.048,-0.03,0.01,-0.05,0.06
20.058,-0.03,0.01,-0.05,0.06
20.068,-0.02,0.02,-0.06,0.07
20.078,0.01,0.02,-0.03,0.04
20.088,0.10,0.05,0.05,0.13
20.098,0.23,0.06,0.10,0.26
20.108,0.33,0.05,0.10,0.35
20.118,0.43,0.04,0.00,0.43
20.128,0.48,0.06,-0.13,0.50
20.138,0.44,0.11,-0.23,0.51
20.148,0.35,0.15,-0.17,0.41
20.158,0.18,0.21,-0.12,0.30
20.168,0.05,0.28,-0.06,0.29
20.178,-0.11,0.35,-0.04,0.37
20.188,-0.22,0.35,-0.02,0.41
20.198,-0.25,0.33,-0.02,0.41
20.208,-0.26,0.31,-0.06,0.41
20.218,-0.28,0.27,-0.13,0.41
20.228,-0.29,0.19,-0.10,0.36
20.238,-0.25,0.11,-0.11,0.29
20.248,-0.19,-0.00,-0.09,0.21
20.258,-0.15,-0.09,-0.03,0.18
20.268,-0.15,-0.18,0.04,0.24
20.278,-0.15,-0.27,0.04,0.32
20.288,-0.15,-0.34,0.14,0.40
20.298,-0.16,-0.30,0.23,0.41
20.308,-0.18,-0.23,0.16,0.33
20.318,-0.18,-0.15,0.01,0.23
20.328,-0.10,-0.07,-0.11,0.16
20.338,-0.06,-0.04,-0.13,0.15
20.348,-0.13,-0.05,-0.04,0.14
20.358,-0.18,-0.08,0.05,0.20
20.368,-0.22,-0.01,0.22,0.31
20.378,-0.23,0.17,0.31,0.43
20.389,-0.01,0.08,0.20,0.22
20.399,0.29,-0.19,0.01,0.35
20.409,0.49,-0.34,-0.11,0.61
20.419,0.59,-0.28,-0.70,0.95
20.429,0.58,-0.33,-1.12,1.30
20.439,0.66,-0.43,-0.25,0.83
20.449,0.21,-0.39,0.51,0.68
20.459,-0.25,-0.31,0.64,0.76
20.469,-0.39,-0.14,0.32,0.53
20.479,-0.30,0.21,-0.07,0.38
20.489,-0.01,0.72,-0.43,0.84
20.499,0.18,1.11,-0.65,1.30
20.509,0.09,1.12,-0.90,1.44
20.519,0.06,0.72,-0.14,0.74
20.529,0.34,0.28,0.70,0.82
20.539,0.44,-0.12,1.08,1.17
20.549,0.36,-0.46,1.03,1.19
20.559,0.14,-0.55,0.64,0.86
20.569,-0.29,-0.06,0.20,0.36
20.579,-0.61,0.42,-0.32,0.81
20.589,-0.59,0.49,-0.61,0.98
20.599,-0.36,0.25,-0.52,0.68
20.609,0.03,-0.15,-0.32,0.35
20.619,0.29,-0.26,-0.05,0.39
20.629,0.40,-0.32,0.15,0.53
20.639,0.42,-0.33,0.27,0.60
20.649,0.29,-0.21,0.31,0.47
20.659,0.17,-0.04,0.30,0.35
20.669,0.08,0.03,0.26,0.27
20.679,-0.09,0.07,0.10,0.15
20.689,-0.23,0.09,0.01,0.25
20.699,-0.26,0.02,-0.09,0.27
20.709,-0.20,-0.10,-0.10,0.25
20.719,-0.13,-0.08,-0.08,0.18
20.729,-0.12,-0.02,-0.03,0.13
20.739,0.00,-0.10,-0.05,0.11
20.749,0.16,-0.27,-0.13,0.34
20.759,0.34,-0.23,-0.00,0.41
20.769,0.42,-0.07,0.17,0.46
20.779,0.38,0.13,0.26,0.48
20.789,0.15,0.22,0.13,0.30
20.799,-0.12,0.27,-0.09,0.31
20.809,-0.34,0.28,-0.26,0.51
20.819,-0.46,0.33,-0.30,0.64
20.829,-0.46,0.33,-0.16,0.59
20.839,-0.31,0.27,-0.07,0.42
20.849,-0.11,0.14,-0.03,0.18
20.859,0.03,0.02,0.05,0.06
20.869,0.08,-0.07,0.09,0.14
20.879,0.04,-0.07,0.11,0.14
20.889,0.04,-0.03,0.13,0.14
20.899,0.10,-0.08,0.20,0.24
20.909,0.20,-0.13,0.18,0.30
20.919,0.22,-0.09,0.11,0.26
20.929,0.14,-0.04,0.03,0.15
20.939,0.08,-0.02,0.05,0.10
20.949,0.03,0.00,0.18,0.18
20.959,0.05,-0.03,0.24,0.25
20.969,0.07,-0.01,0.21,0.22
20.979,0.05,0.03,0.09,0.11
20.989,0.10,0.01,-0.02,0.10
20.999,0.16,-0.01,-0.09,0.18
21.009,0.11,-0.05,-0.06,0.14
21.019,0.11,-0.12,-0.06,0.18
21.029,0.09,-0.11,-0.04,0.15
21.039,0.03,-0.06,0.04,0.08
21.049,-0.03,0.03,0.03,0.05
21.059,-0.06,0.11,-0.07,0.14
21.069,-0.08,0.13,-0.08,0.17
21.079,-0.07,0.09,-0.05,0.12
21.089,-0.05,0.02,-0.04,0.07
21.099,-0.02,-0.04,0.05,0.07
21.109,-0.01,-0.13,0.12,0.18
21.119,0.02,-0.11,0.10,0.15
21.129,-0.01,-0.08,0.02,0.08
21.139,0.03,-0.02,-0.02,0.04
21.149,-0.03,0.07,-0.09,0.11
21.159,-0.10,0.11,-0.15,0.21
21.169,-0.16,0.10,-0.07,0.20
21.179,-0.15,0.04,0.01,0.16
21.189,-0.08,0.01,0.07,0.10
21.199,0.03,-0.00,0.07,0.08
21.209,0.03,-0.02,0.03,0.05
21.219,0.00,0.01,-0.03,0.03
21.229,-0.05,0.05,-0.06,0.09
21.239,-0.03,0.05,-0.07,0.09
21.249,-0.08,0.05,-0.01,0.09
21.259,-0.10,0.06,0.03,0.12
21.269,-0.06,0.04,0.21,0.23
21.279,-0.08,0.03,0.36,0.36
21.289,-0.11,-0.06,-0.00,0.13
21.299,-0.03,-0.09,-0.02,0.10
21.309,0.04,-0.02,-0.03,0.05
21.319,0.04,0.08,-0.03,0.09
21.329,0.08,0.09,-0.08,0.14
21.339,0.13,0.05,-0.17,0.22
21.349,0.16,0.02,-0.23,0.28
21.359,0.12,0.07,-0.19,0.24
21.369,0.15,-0.05,0.03,0.16
