time,ax,ay,az,atotal
0.000,0.16,-0.00,-0.02,0.16
0.010,0.22,-0.06,0.06,0.23
0.020,0.21,-0.04,0.16,0.26
0.030,0.13,-0.02,0.30,0.33
0.040,0.03,-0.02,0.42,0.42
0.050,-0.04,-0.00,0.45,0.46
0.060,-0.08,-0.05,0.09,0.13
0.070,-0.16,0.07,-0.56,0.58
0.080,-0.24,0.19,-0.55,0.63
0.090,-0.28,0.20,-0.26,0.43
0.100,-0.28,0.13,-0.11,0.32
0.110,-0.30,0.00,0.01,0.30
0.120,-0.66,-0.29,0.29,0.78
0.130,-0.03,0.20,0.68,0.71
0.140,0.35,0.31,0.70,0.84
0.150,0.05,0.28,-0.15,0.32
0.160,-0.06,0.19,-0.00,0.20
0.170,0.00,0.12,0.16,0.20
0.180,0.14,0.15,0.11,0.23
0.190,0.14,0.17,-0.22,0.31
0.200,-0.17,0.11,-0.35,0.40
0.210,-0.54,0.08,0.10,0.56
0.220,-0.70,0.08,-0.20,0.74
0.230,-0.76,0.07,-0.71,1.04
0.240,-0.83,0.07,-0.29,0.88
0.250,-0.75,-0.01,-0.09,0.75
0.260,-0.51,-0.03,0.03,0.51
0.270,-0.31,-0.02,0.24,0.39
0.280,-0.27,-0.04,0.41,0.49
0.290,-0.35,-0.09,0.43,0.56
0.300,-0.54,-0.12,0.39,0.67
0.310,-0.66,-0.05,0.34,0.75
0.320,-0.61,-0.03,0.37,0.71
0.330,-0.25,-0.00,0.22,0.34
0.340,0.38,0.46,-0.35,0.69
0.350,0.96,0.73,-0.45,1.29
0.360,1.04,0.37,-0.70,1.31
0.370,1.29,0.15,-0.22,1.31
0.380,1.35,-0.14,0.30,1.39
0.390,0.66,-0.30,0.28,0.78
0.400,-0.28,-0.21,0.19,0.39
0.410,-0.88,-0.12,0.22,0.91
0.420,-0.97,-0.10,0.35,1.04
0.430,-0.64,-0.11,0.41,0.77
0.440,-0.11,-0.13,0.34,0.38
0.450,0.19,-0.07,0.38,0.43
0.460,0.11,0.04,0.32,0.34
0.470,0.01,0.13,-0.08,0.15
0.480,0.00,0.05,-0.32,0.32
0.490,-0.11,-0.23,-0.19,0.32
0.501,-0.21,-0.20,-0.20,0.35
0.510,-0.12,-0.27,-0.25,0.39
0.520,-0.14,-0.38,-0.27,0.48
0.530,-0.08,-0.18,-0.29,0.35
0.540,0.20,0.00,-0.46,0.50
0.550,0.59,0.02,-0.62,0.86
0.560,0.90,-0.15,-0.58,1.08
0.570,0.98,-0.26,-0.29,1.05
0.580,0.93,-0.13,0.07,0.95
0.590,0.54,0.07,0.40,0.68
0.600,-0.24,0.20,0.57,0.64
0.611,-0.60,0.19,0.28,0.69
0.621,-0.50,0.00,-0.08,0.51
0.630,-0.30,-0.07,-0.13,0.33
0.641,-0.23,0.21,0.28,0.42
0.651,-1.97,1.29,1.64,2.87
0.661,-1.10,0.38,0.87,1.45
0.671,0.47,-0.48,-0.60,0.90
0.681,0.94,-0.40,-1.04,1.46
0.691,1.01,-0.18,-1.02,1.45
0.701,0.52,-0.07,-0.58,0.78
0.711,0.05,-0.06,-0.00,0.07
0.721,-0.11,-0.27,0.44,0.53
0.731,-0.15,-0.43,0.37,0.59
0.741,-0.41,-0.37,0.25,0.61
0.751,-0.69,-0.02,0.33,0.77
0.761,-0.61,0.34,-0.28,0.76
0.771,-0.44,0.43,-0.71,0.94
0.781,-0.26,0.22,-0.64,0.72
0.791,0.10,-0.08,-0.10,0.17
0.801,0.23,-0.13,0.40,0.48
0.811,-0.09,0.05,0.31,0.33
0.821,-0.25,0.29,-0.19,0.43
0.831,-0.36,0.30,-0.33,0.57
0.841,-0.19,0.21,0.13,0.32
0.851,-0.18,0.14,0.18,0.29
0.861,-0.14,-0.07,0.27,0.31
0.871,0.08,-0.24,0.00,0.26
0.881,0.39,-0.11,-0.26,0.49
0.891,0.56,0.13,-0.16,0.59
0.901,0.40,0.27,0.02,0.49
0.911,0.19,0.27,0.02,0.33
0.921,-0.01,0.15,0.19,0.24
0.931,-0.26,-0.00,0.10,0.28
0.941,-0.38,-0.08,-0.50,0.63
0.951,-0.51,-0.10,-0.46,0.69
0.961,-0.31,-0.03,-0.07,0.32
0.971,-0.13,0.11,-0.48,0.51
0.981,-0.30,0.16,-0.14,0.37
0.991,-0.46,0.13,-0.20,0.52
1.001,-0.57,0.11,-0.22,0.62
1.011,-0.59,0.10,0.12,0.61
1.021,-0.50,0.16,0.10,0.54
1.031,-0.45,0.17,-0.06,0.49
1.041,-0.62,0.16,-0.24,0.69
1.051,-0.82,0.23,-0.38,0.93
1.061,-0.83,0.24,-0.46,0.98
1.071,-0.72,0.21,-0.49,0.90
1.081,-0.26,0.12,-0.36,0.46
1.091,-0.12,0.06,-0.44,0.46
1.101,-0.41,-0.08,-0.37,0.56
1.111,-0.42,-0.30,-0.37,0.63
1.121,-0.22,-0.42,-0.29,0.56
1.131,-0.08,-0.35,-0.11,0.37
1.141,-0.03,-0.13,0.21,0.25
1.151,-0.03,-0.06,0.47,0.47
1.161,-0.00,-0.06,0.59,0.60
1.171,0.09,0.03,0.66,0.67
1.181,0.14,0.13,0.64,0.67
1.191,0.22,0.25,0.54,0.64
1.201,0.31,0.26,0.38,0.55
1.211,0.38,0.18,0.24,0.49
1.221,0.41,0.07,0.07,0.42
1.231,0.39,0.04,-0.03,0.39
1.241,0.29,0.02,-0.18,0.35
1.251,0.13,0.04,-0.13,0.18
1.261,0.18,0.03,-0.01,0.18
1.271,0.36,0.15,-0.15,0.42
1.281,0.40,0.15,-0.29,0.52
1.291,0.11,0.02,-0.09,0.14
1.301,-0.13,-0.10,0.07,0.18
1.311,-0.02,-0.24,-0.00,0.24
1.321,0.11,-0.21,0.10,0.25
1.331,0.15,-0.17,0.04,0.23
1.341,0.19,-0.07,0.10,0.23
1.351,0.16,-0.04,0.21,0.27
1.361,0.04,-0.10,0.24,0.27
1.371,-0.07,-0.16,0.13,0.22
1.381,-0.03,-0.07,0.02,0.08
1.391,0.17,0.09,0.03,0.19
1.401,0.25,0.18,0.07,0.32
1.411,0.05,0.18,0.04,0.19
1.421,-0.18,0.17,-0.11,0.27
1.431,-0.20,0.10,-0.23,0.32
1.441,-0.09,-0.01,-0.21,0.23
1.451,0.04,-0.04,-0.14,0.15
1.461,-0.00,0.02,-0.08,0.08
1.471,-0.22,0.08,-0.01,0.24
1.481,-0.33,0.17,0.05,0.38
1.491,-0.25,0.12,0.18,0.33
1.501,-0.15,0.15,0.23,0.32
1.511,-0.10,0.12,0.18,0.24
1.521,-0.05,0.04,0.12,0.14
1.531,-0.06,-0.03,0.06,0.09
1.541,-0.13,-0.03,-0.04,0.14
1.551,-0.18,0.04,-0.12,0.22
1.561,-0.26,0.11,-0.11,0.30
1.571,-0.38,0.15,-0.13,0.43
1.581,-0.42,0.05,-0.14,0.45
1.591,-0.36,0.02,-0.14,0.39
1.601,-0.16,0.13,-0.10,0.23
1.611,0.00,0.29,-0.10,0.30
1.621,0.10,0.32,-0.17,0.37
1.631,0.07,0.20,-0.02,0.21
1.641,-0.05,0.13,0.45,0.47
1.651,-0.18,0.15,0.29,0.37
1.661,-0.13,0.12,-0.16,0.24
1.671,-0.03,0.16,-0.32,0.36
1.681,0.00,0.18,-0.43,0.46
1.691,-0.07,0.17,-0.33,0.38
1.701,-0.16,0.20,-0.16,0.30
1.711,-0.10,0.19,0.03,0.22
1.721,-0.08,0.01,0.26,0.27
1.731,-0.12,-0.15,0.23,0.30
1.741,-0.07,-0.14,0.11,0.20
1.751,0.04,-0.04,0.05,0.08
1.761,0.21,-0.01,-0.01,0.21
1.771,0.31,-0.05,-0.05,0.32
1.781,0.19,-0.12,0.09,0.24
1.791,-0.00,-0.09,0.22,0.24
1.802,0.03,-0.01,0.09,0.10
1.811,0.03,0.01,0.00,0.04
1.821,-0.02,-0.02,0.02,0.04
1.832,-0.10,-0.05,0.03,0.12
1.842,-0.09,0.03,-0.01,0.09
1.851,-0.07,0.11,-0.01,0.13
1.862,-0.12,0.11,0.01,0.16
1.871,-0.05,0.06,0.06,0.09
1.881,-0.02,0.00,0.11,0.11
1.891,-0.03,-0.04,0.09,0.11
1.902,0.00,-0.12,0.06,0.13
1.911,0.03,-0.08,-0.01,0.09
1.922,-0.05,0.05,-0.02,0.07
1.932,-0.12,0.10,-0.04,0.16
1.942,-0.15,0.06,-0.14,0.21
1.952,-0.15,0.03,-0.17,0.23
1.962,-0.08,-0.03,-0.06,0.10
1.972,-0.02,-0.16,0.04,0.17
1.982,0.04,-0.19,0.02,0.20
1.992,0.08,-0.19,0.01,0.20
2.002,0.12,-0.15,0.02,0.19
2.012,0.15,-0.08,0.02,0.17
2.022,0.17,0.04,0.01,0.18
2.032,0.10,0.42,-0.29,0.52
2.042,-0.18,1.04,-0.74,1.29
2.052,0.44,0.50,-0.32,0.74
2.062,0.20,0.41,-0.16,0.48
2.072,0.25,0.67,0.21,0.74
2.082,0.46,0.50,0.36,0.76
2.092,0.43,0.05,0.49,0.65
2.102,-0.08,-0.26,0.91,0.95
2.112,-0.93,-0.53,1.22,1.62
2.122,-1.38,-0.83,1.15,1.97
2.132,-1.37,-1.01,0.99,1.97
2.142,-1.10,-1.04,0.85,1.74
2.152,-0.58,-0.85,0.56,1.17
2.162,0.20,-0.38,-1.17,1.24
2.172,0.87,0.28,-3.55,3.67
2.182,0.97,0.65,-3.31,3.52
2.192,0.58,0.56,-0.57,0.99
2.202,0.08,0.37,1.36,1.41
2.212,-0.32,0.20,1.40,1.45
2.222,-0.57,0.02,0.98,1.14
2.232,-0.58,-0.12,0.66,0.89
2.242,-0.43,-0.22,0.35,0.59
2.252,-0.22,-0.23,-0.14,0.34
2.262,0.05,-0.17,-0.70,0.72
2.272,0.34,-0.06,-0.88,0.94
2.282,0.51,0.09,-0.54,0.75
2.292,0.44,0.23,-0.06,0.50
2.302,0.17,0.34,0.27,0.47
2.312,-0.06,0.35,0.30,0.47
2.322,-0.17,0.26,0.24,0.39
2.332,-0.21,0.11,0.18,0.29
2.342,-0.14,0.06,-0.04,0.16
2.352,-0.04,0.17,-0.22,0.29
2.362,-0.02,0.21,-0.16,0.27
2.372,-0.13,0.21,-0.05,0.25
2.382,-0.15,0.20,0.09,0.27
2.392,-0.08,0.10,0.16,0.21
2.402,-0.07,-0.03,0.16,0.18
2.412,0.05,-0.14,0.16,0.22
2.422,0.16,-0.17,0.10,0.25
2.432,0.04,-0.15,-0.08,0.17
2.442,-0.06,-0.03,-0.25,0.26
2.452,-0.20,0.13,-0.47,0.52
2.462,-0.24,0.28,-0.35,0.51
2.472,-0.24,0.29,0.27,0.46
2.482,-0.22,0.15,0.60,0.65
2.492,-0.09,-0.01,-0.01,0.09
2.502,0.07,-0.10,-0.16,0.20
2.512,0.28,-0.17,-0.32,0.46
2.522,0.43,-0.25,-0.36,0.61
2.532,0.38,-0.36,-0.20,0.56
2.542,0.05,-0.41,-0.18,0.45
2.552,-0.22,-0.34,-0.14,0.43
2.562,-0.41,-0.28,-0.02,0.50
2.572,-0.47,-0.17,0.18,0.53
2.582,-0.30,0.00,0.30,0.43
2.592,-0.06,0.09,0.29,0.31
2.602,0.19,0.04,0.20,0.28
2.612,0.37,-0.09,0.24,0.45
2.622,0.33,-0.27,0.23,0.48
2.632,0.08,-0.43,0.14,0.46
2.642,-0.10,-0.46,0.04,0.47
2.652,-0.21,-0.31,-0.15,0.40
2.662,-0.27,-0.07,-0.31,0.42
2.672,-0.29,0.09,-0.14,0.34
2.682,-0.24,0.12,0.16,0.31
2.692,-0.10,0.06,0.36,0.37
2.702,0.01,-0.08,0.41,0.42
2.712,-0.01,-0.18,0.37,0.42
2.722,-0.09,-0.14,0.27,0.32
2.732,-0.17,0.06,0.11,0.21
2.742,-0.17,0.30,-0.04,0.35
2.752,-0.09,0.50,-0.12,0.52
2.762,-0.03,0.53,-0.10,0.54
2.772,0.00,0.45,-0.09,0.46
2.782,-0.06,0.33,-0.00,0.34
2.792,-0.18,0.21,0.13,0.31
2.802,-0.28,0.19,0.12,0.36
2.812,-0.26,0.26,-0.00,0.36
2.822,-0.18,0.28,-0.06,0.34
2.832,-0.09,0.25,-0.07,0.27
2.842,0.05,0.21,-0.07,0.23
2.852,0.17,0.16,-0.00,0.23
2.862,0.23,0.12,0.13,0.29
2.872,0.23,0.15,0.11,0.30
2.882,0.19,0.20,-0.02,0.27
2.892,0.15,0.22,-0.06,0.27
2.902,0.03,0.13,-0.11,0.17
2.912,-0.09,-0.05,-0.10,0.14
2.922,-0.15,-0.16,0.08,0.24
2.932,-0.16,-0.28,0.19,0.38
2.942,-0.15,-0.29,0.03,0.32
2.952,-0.15,-0.13,-0.12,0.23
2.962,-0.14,0.08,-0.17,0.23
2.972,-0.17,0.19,-0.28,0.38
2.982,-0.20,0.13,-0.28,0.37
2.992,-0.21,-0.00,-0.05,0.21
3.002,-0.22,-0.18,0.20,0.35
3.012,-0.19,-0.34,0.33,0.51
3.022,-0.16,-0.42,0.21,0.50
3.032,-0.12,-0.35,0.01,0.37
3.042,-0.10,-0.20,-0.13,0.26
3.052,-0.05,-0.04,-0.20,0.21
3.062,-0.03,0.10,-0.14,0.17
3.072,0.00,0.22,0.01,0.22
3.082,0.03,0.24,-0.01,0.24
3.092,0.03,0.18,-0.07,0.20
3.103,0.03,0.12,0.00,0.12
3.112,0.06,0.02,0.04,0.08
3.123,0.06,-0.05,0.09,0.12
3.133,0.06,-0.12,0.14,0.19
3.143,0.05,-0.10,-0.05,0.12
3.152,0.03,0.07,-0.31,0.32
3.162,0.01,0.29,-0.27,0.39
3.173,-0.00,0.41,-0.08,0.42
3.183,0.01,0.38,0.04,0.39
3.193,0.04,0.22,0.13,0.26
3.203,0.07,0.04,0.26,0.27
3.213,0.11,-0.08,0.30,0.33
3.223,0.26,-0.03,0.24,0.36
3.233,0.41,0.05,0.16,0.44
3.243,0.53,0.11,0.07,0.54
3.253,0.56,0.05,0.15,0.58
3.263,0.54,-0.09,0.47,0.72
3.273,0.48,-0.24,0.76,0.93
3.282,0.36,-0.40,0.81,0.97
3.293,0.20,-0.51,0.58,0.80
3.303,-0.04,-0.53,0.19,0.57
3.313,-0.27,-0.43,-0.20,0.55
3.323,-0.51,-0.26,-0.50,0.76
3.332,-0.65,-0.01,-0.65,0.91
3.343,-0.61,0.25,-0.65,0.92
3.353,-0.44,0.37,-0.57,0.81
3.363,-0.25,0.32,-0.22,0.46
3.373,-0.13,0.12,0.41,0.45
3.383,-0.09,-0.07,0.35,0.37
3.393,-0.07,-0.17,-0.11,0.21
3.403,-0.08,-0.20,-0.07,0.22
3.413,-0.05,-0.15,-0.10,0.18
3.423,0.03,-0.08,0.03,0.09
3.433,0.09,-0.08,0.20,0.24
3.443,0.19,-0.07,0.21,0.29
3.453,0.25,-0.06,0.11,0.28
3.463,0.25,-0.05,-0.01,0.26
3.473,0.20,-0.04,-0.07,0.21
3.483,0.07,-0.01,-0.12,0.14
3.493,-0.06,0.04,-0.19,0.21
3.503,-0.17,0.11,-0.24,0.31
3.513,-0.20,0.19,-0.26,0.38
3.523,-0.18,0.25,-0.21,0.37
3.533,-0.12,0.31,-0.07,0.34
3.543,-0.06,0.32,0.03,0.32
3.553,-0.03,0.26,0.09,0.28
3.563,0.00,0.20,0.11,0.23
3.573,0.01,0.15,0.12,0.20
3.583,-0.01,0.12,0.12,0.17
3.593,-0.04,0.12,0.09,0.15
3.603,-0.09,0.13,0.06,0.17
3.613,-0.15,0.12,0.04,0.20
3.623,-0.15,0.13,0.00,0.20
3.633,-0.14,0.11,-0.04,0.18
3.643,-0.10,0.08,-0.06,0.14
3.653,-0.05,0.07,0.00,0.09
3.663,-0.01,0.07,0.06,0.09
3.673,0.02,0.05,0.03,0.06
3.683,-0.00,0.01,-0.10,0.10
3.693,-0.05,-0.01,-0.10,0.11
3.703,-0.02,-0.03,-0.05,0.07
3.713,0.00,-0.03,-0.06,0.06
3.723,0.04,-0.02,-0.07,0.09
3.733,0.07,-0.05,0.01,0.08
3.743,0.09,-0.06,0.08,0.13
3.753,0.11,-0.07,0.07,0.15
3.763,0.11,-0.07,0.02,0.13
3.773,0.06,-0.11,0.02,0.12
3.783,0.02,-0.16,0.03,0.17
3.793,-0.06,-0.23,0.03,0.24
3.803,-0.09,-0.25,0.02,0.27
3.813,-0.11,-0.21,-0.00,0.24
3.823,-0.12,-0.18,-0.05,0.22
3.833,-0.13,-0.11,-0.07,0.18
3.843,-0.11,-0.08,-0.09,0.17
3.853,-0.09,-0.06,-0.06,0.12
3.863,-0.07,-0.04,-0.03,0.08
3.873,-0.03,-0.02,-0.03,0.05
3.883,-0.04,0.03,-0.04,0.06
3.893,-0.04,0.04,-0.01,0.06
3.903,-0.05,0.06,0.03,0.09
3.913,-0.06,0.08,0.04,0.11
3.923,-0.05,0.08,0.03,0.10
3.933,-0.02,0.09,0.01,0.09
3.943,-0.01,0.06,-0.03,0.07
3.953,-0.01,0.06,-0.03,0.06
3.963,0.01,0.07,-0.04,0.08
3.973,-0.00,0.08,-0.01,0.08
3.983,-0.00,0.07,-0.02,0.07
3.993,-0.02,0.05,-0.03,0.07
4.003,-0.03,0.05,-0.03,0.06
4.013,-0.02,0.04,-0.01,0.05
4.023,-0.02,0.03,0.00,0.03
4.033,-0.01,0.04,0.03,0.05
4.043,-0.01,0.04,0.04,0.06
4.053,-0.01,0.03,0.02,0.04
4.063,-0.01,0.01,-0.01,0.02
4.073,-0.01,0.01,-0.01,0.02
4.083,-0.02,-0.01,0.01,0.03
4.093,-0.03,-0.04,0.04,0.06
4.103,-0.04,-0.02,0.03,0.06
4.113,-0.04,-0.02,0.01,0.05
4.123,-0.05,-0.01,-0.00,0.05
4.133,-0.03,-0.00,-0.00,0.03
4.143,-0.02,-0.01,-0.04,0.04
4.153,-0.03,-0.03,-0.01,0.04
4.163,-0.01,-0.04,0.04,0.06
4.173,-0.02,-0.05,0.01,0.05
4.183,-0.02,-0.03,-0.03,0.05
4.193,0.02,-0.01,-0.01,0.02
4.203,-0.00,0.02,0.01,0.02
4.213,-0.01,0.06,-0.02,0.06
4.223,0.02,0.08,-0.06,0.10
4.233,0.01,0.04,-0.21,0.21
4.243,-0.07,-0.06,-0.01,0.09
4.253,-0.16,-0.14,0.45,0.50
4.263,-0.14,-0.08,-0.11,0.20
4.273,-0.10,0.04,-0.33,0.35
4.283,-0.09,0.09,-0.22,0.25
4.293,-0.04,0.08,-0.25,0.26
4.303,-0.04,0.03,-0.10,0.11
4.313,-0.01,-0.03,0.09,0.09
4.323,0.03,-0.05,0.21,0.22
4.333,0.08,-0.04,0.18,0.20
4.343,0.08,-0.02,0.05,0.10
4.354,0.04,0.01,-0.02,0.05
4.363,0.02,0.03,0.02,0.04
4.373,-0.01,0.04,0.03,0.05
4.383,-0.04,0.04,0.03,0.06
4.394,-0.04,0.01,-0.01,0.04
4.403,-0.07,-0.02,-0.02,0.07
4.413,-0.07,-0.01,0.00,0.07
4.424,-0.09,-0.01,-0.02,0.09
4.434,-0.08,0.02,-0.04,0.09
4.444,-0.08,0.03,-0.04,0.10
4.454,-0.09,0.01,-0.01,0.09
4.463,-0.08,0.05,0.04,0.10
4.474,-0.10,0.03,0.05,0.11
4.484,-0.09,0.01,-0.00,0.09
4.494,-0.10,0.04,-0.03,0.12
4.504,-0.08,0.05,-0.06,0.11
4.514,-0.07,0.03,-0.06,0.09
4.524,-0.08,0.01,-0.04,0.09
4.534,-0.04,-0.01,-0.05,0.06
4.544,-0.02,-0.01,-0.01,0.03
4.554,-0.01,-0.02,0.03,0.04
4.564,0.00,-0.01,0.01,0.01
4.574,0.02,0.03,-0.15,0.16
4.584,0.02,0.06,-0.16,0.18
4.594,0.02,0.06,-0.03,0.07
4.604,0.05,0.03,0.02,0.07
4.614,0.05,-0.01,0.07,0.09
4.624,0.05,-0.06,0.11,0.14
4.634,0.03,-0.08,0.09,0.13
4.644,0.02,-0.06,0.05,0.08
4.654,-0.01,-0.01,0.01,0.02
4.664,-0.05,0.01,0.01,0.05
4.674,-0.08,0.02,-0.00,0.08
4.684,-0.12,0.02,-0.05,0.13
4.694,-0.11,0.02,-0.08,0.13
4.704,-0.10,-0.00,-0.05,0.11
4.714,-0.08,-0.00,-0.02,0.08
4.724,-0.06,-0.02,0.00,0.06
4.734,-0.05,-0.04,0.03,0.07
4.744,-0.04,-0.05,0.03,0.07
4.754,-0.02,-0.02,0.02,0.04
4.764,-0.05,0.02,0.01,0.05
4.774,-0.03,0.03,-0.01,0.05
4.784,-0.04,0.02,0.01,0.05
4.794,-0.01,0.02,0.03,0.04
4.804,0.03,0.02,0.03,0.04
4.814,0.04,0.03,-0.00,0.05
4.824,0.06,0.04,-0.01,0.07
4.834,0.03,0.05,0.02,0.06
4.844,0.00,0.04,0.02,0.04
4.854,-0.00,0.04,0.02,0.04
4.864,0.00,0.02,-0.01,0.03
4.874,-0.03,0.01,-0.02,0.04
4.884,-0.02,-0.02,0.02,0.04
4.894,-0.02,-0.04,0.04,0.06
4.904,-0.03,-0.02,0.02,0.04
4.914,-0.02,-0.01,0.01,0.03
4.924,-0.02,0.00,0.04,0.04
4.934,-0.02,0.02,0.04,0.05
4.944,-0.02,0.03,0.05,0.06
4.954,-0.01,0.04,0.03,0.05
4.964,-0.02,0.02,-0.03,0.04
4.974,-0.04,0.02,-0.08,0.09
4.984,-0.04,0.00,-0.07,0.08
4.994,-0.05,-0.02,0.01,0.05
5.004,-0.04,-0.03,0.03,0.06
5.014,-0.01,-0.05,0.05,0.07
5.024,0.01,-0.02,0.05,0.06
5.034,0.02,-0.01,0.03,0.04
5.044,0.03,0.02,-0.00,0.04
5.054,0.04,0.06,-0.04,0.08
5.064,0.04,0.07,-0.16,0.18
5.074,0.01,0.00,-0.17,0.17
5.084,-0.08,-0.10,0.34,0.37
5.094,-0.14,-0.15,0.34,0.40
5.104,-0.08,-0.04,-0.13,0.16
5.114,-0.02,0.08,-0.17,0.19
5.124,0.04,0.08,-0.26,0.27
5.134,0.01,0.02,-0.18,0.19
5.144,-0.05,-0.06,-0.04,0.09
5.154,-0.05,-0.09,0.05,0.11
5.164,0.01,-0.05,0.12,0.13
5.174,0.07,0.01,0.06,0.09
5.184,0.11,0.06,0.03,0.13
5.194,0.12,0.06,0.10,0.16
5.204,0.08,0.03,0.11,0.14
5.214,0.03,-0.02,0.06,0.07
5.224,-0.01,-0.04,0.04,0.05
5.234,-0.03,-0.03,0.03,0.05
5.244,-0.04,-0.00,0.05,0.06
5.254,-0.04,0.01,0.00,0.04
5.264,-0.04,0.03,-0.05,0.07
5.274,-0.04,0.03,-0.06,0.08
5.284,-0.07,0.02,-0.07,0.10
5.294,-0.07,0.02,-0.00,0.07
5.304,-0.06,0.00,0.05,0.08
5.314,-0.04,-0.01,0.07,0.08
5.324,-0.05,-0.02,0.05,0.07
5.334,-0.03,-0.02,0.05,0.06
5.344,-0.01,-0.01,0.04,0.04
5.354,0.02,0.01,-0.01,0.02
5.364,0.04,0.01,-0.01,0.04
5.374,0.04,0.02,0.09,0.10
5.384,0.05,0.01,0.09,0.10
5.394,0.01,0.02,-0.01,0.02
5.404,-0.00,0.00,-0.11,0.11
5.414,-0.04,-0.01,-0.08,0.09
5.424,-0.02,-0.02,-0.00,0.03
5.434,0.01,0.01,-0.02,0.02
5.444,0.04,-0.01,-0.04,0.05
5.454,0.03,-0.01,0.03,0.05
5.464,0.05,-0.02,0.05,0.07
5.474,0.03,0.00,0.00,0.03
5.484,0.03,0.01,0.01,0.04
5.494,0.04,0.02,0.04,0.06
5.504,-0.00,0.02,0.05,0.05
5.514,-0.03,-0.00,0.05,0.06
5.524,-0.04,-0.00,0.04,0.06
5.534,-0.03,-0.00,0.03,0.04
5.544,-0.03,0.01,-0.01,0.03
5.554,-0.03,0.05,-0.04,0.07
5.564,-0.01,0.02,-0.07,0.08
5.575,-0.03,0.04,-0.05,0.07
5.584,-0.01,0.01,-0.02,0.03
5.594,-0.01,-0.01,0.02,0.02
5.604,-0.02,-0.03,0.02,0.05
5.615,-0.04,-0.04,0.06,0.08
5.625,-0.02,-0.02,0.06,0.07
5.634,0.00,0.01,0.01,0.02
5.644,0.03,0.04,-0.04,0.06
5.654,0.02,0.05,-0.03,0.06
5.664,0.02,0.04,0.00,0.05
5.675,0.03,-0.00,0.02,0.04
5.685,0.03,-0.02,0.02,0.04
5.695,0.01,-0.03,0.02,0.04
5.704,0.01,-0.02,0.02,0.03
5.714,0.01,-0.01,0.01,0.02
5.725,-0.00,0.01,-0.00,0.01
5.735,-0.01,0.01,-0.01,0.02
5.745,-0.01,0.01,-0.00,0.01
5.755,0.00,0.00,-0.00,0.01
5.765,0.01,0.01,0.01,0.02
5.775,-0.02,0.02,0.02,0.03
5.785,0.01,0.02,0.02,0.03
5.795,0.02,-0.00,0.03,0.03
5.804,0.00,-0.00,-0.01,0.01
5.815,0.02,-0.01,-0.01,0.03
5.825,-0.01,-0.01,-0.00,0.01
5.835,-0.04,-0.01,0.01,0.04
5.845,-0.02,-0.02,0.02,0.03
5.855,0.01,0.02,0.02,0.02
5.865,0.01,0.02,0.00,0.02
5.875,0.01,0.01,-0.02,0.02
5.885,-0.01,0.00,-0.04,0.04
5.895,-0.02,-0.03,-0.03,0.05
5.905,-0.02,-0.02,0.01,0.03
5.915,0.01,-0.02,0.05,0.05
5.925,0.01,-0.00,0.03,0.04
5.935,0.01,0.02,-0.02,0.03
5.945,0.01,0.03,-0.05,0.06
5.955,0.01,0.03,-0.05,0.06
5.965,0.00,0.05,-0.04,0.06
5.975,0.01,0.05,-0.10,0.11
5.985,0.00,0.04,-0.17,0.17
5.995,-0.04,-0.06,0.23,0.24
6.005,-0.06,-0.16,0.52,0.55
6.015,-0.01,-0.07,-0.11,0.13
6.025,0.03,0.07,-0.28,0.29
6.035,0.01,0.12,-0.09,0.15
6.045,-0.02,0.08,-0.24,0.25
6.055,-0.06,-0.02,-0.10,0.11
6.065,-0.08,-0.08,0.04,0.12
6.075,0.00,-0.09,0.02,0.09
6.085,0.05,-0.04,0.03,0.07
6.095,0.11,0.02,0.07,0.13
6.105,0.07,0.08,0.09,0.14
6.115,0.04,0.07,0.13,0.15
6.125,0.02,0.03,0.06,0.07
6.135,0.01,0.00,0.02,0.02
6.145,0.02,-0.04,-0.01,0.04
6.155,0.01,-0.05,-0.03,0.06
6.165,-0.01,-0.02,-0.01,0.03
6.175,-0.04,0.00,-0.04,0.06
6.185,-0.06,0.05,-0.08,0.11
6.195,-0.08,0.07,-0.07,0.12
6.205,-0.06,0.05,-0.02,0.08
6.215,-0.05,-0.00,0.07,0.08
6.225,-0.02,-0.04,0.09,0.10
6.235,0.00,-0.05,0.09,0.10
6.245,0.01,-0.03,0.06,0.07
6.255,0.02,-0.00,0.04,0.05
6.265,0.02,0.04,0.03,0.06
6.275,0.03,0.06,-0.02,0.07
6.285,0.05,0.05,-0.03,0.08
6.295,0.03,0.02,0.07,0.08
6.305,0.00,-0.01,0.02,0.02
6.315,-0.02,-0.03,-0.09,0.10
6.325,-0.05,-0.05,-0.07,0.10
6.335,-0.02,-0.04,0.06,0.07
6.345,0.00,0.00,0.01,0.01
6.355,0.05,0.01,-0.07,0.09
6.365,0.08,-0.02,-0.03,0.08
6.375,0.04,-0.03,0.03,0.06
6.385,0.02,-0.02,0.04,0.05
6.395,0.01,-0.00,0.04,0.04
6.405,0.02,0.00,0.05,0.05
6.415,0.02,0.00,0.03,0.04
6.425,-0.02,-0.01,-0.00,0.02
6.435,-0.03,-0.01,-0.02,0.04
6.445,-0.05,-0.02,-0.01,0.05
6.455,-0.05,-0.00,-0.02,0.05
6.465,-0.03,0.03,-0.02,0.05
6.475,-0.02,0.02,-0.03,0.04
6.485,-0.00,0.03,-0.02,0.04
6.495,-0.01,0.02,-0.02,0.03
6.505,-0.01,0.01,-0.01,0.01
6.515,-0.01,-0.01,0.01,0.02
6.525,-0.01,-0.01,0.01,0.02
6.535,-0.02,-0.01,0.01,0.02
6.545,-0.01,-0.01,0.02,0.02
6.555,0.00,0.00,0.00,0.01
6.565,0.02,0.02,-0.00,0.03
6.575,0.02,0.04,-0.01,0.04
6.585,0.02,0.03,-0.01,0.04
6.595,0.02,-0.00,0.01,0.02
6.605,0.00,-0.01,0.01,0.01
6.615,0.01,-0.02,0.02,0.03
6.625,0.01,0.02,-0.00,0.02
6.635,0.00,0.02,-0.01,0.02
6.645,-0.02,0.02,-0.02,0.03
6.655,-0.00,0.01,-0.01,0.02
6.665,-0.00,0.01,0.01,0.01
6.675,0.00,-0.02,0.00,0.02
6.685,0.00,-0.02,0.02,0.03
6.695,-0.01,-0.02,0.02,0.02
6.705,-0.01,0.00,0.01,0.01
6.715,0.00,-0.01,-0.00,0.01
6.725,-0.02,0.01,0.01,0.02
6.735,0.01,0.00,0.00,0.01
6.745,0.00,-0.01,-0.01,0.01
6.755,0.01,-0.02,-0.02,0.03
6.765,0.00,-0.02,-0.01,0.03
6.775,-0.00,-0.02,0.02,0.03
6.785,0.00,0.00,0.01,0.01
6.795,0.00,0.01,0.03,0.03
6.805,0.01,0.02,0.03,0.04
6.815,0.02,0.00,-0.02,0.02
6.825,0.01,0.00,-0.04,0.04
6.835,0.02,-0.02,-0.02,0.03
6.845,-0.00,-0.03,0.02,0.04
6.855,0.01,-0.02,0.03,0.03
6.865,0.04,0.01,-0.01,0.04
6.875,0.04,0.05,-0.02,0.07
6.885,0.02,0.06,-0.03,0.07
6.895,-0.02,0.04,-0.03,0.05
6.906,0.01,0.05,-0.08,0.10
6.916,0.02,0.02,-0.19,0.19
6.926,-0.02,-0.09,0.21,0.23
6.936,-0.07,-0.17,0.52,0.55
6.946,-0.05,-0.07,-0.10,0.13
6.955,0.03,0.09,-0.34,0.36
6.966,0.01,0.15,-0.01,0.15
6.976,-0.02,0.10,-0.18,0.20
6.986,-0.06,-0.02,-0.11,0.13
6.996,-0.06,-0.11,0.02,0.13
7.006,0.01,-0.10,0.01,0.10
7.016,0.05,-0.03,0.01,0.06
7.026,0.08,0.04,0.05,0.10
7.036,0.07,0.09,0.09,0.15
7.046,0.02,0.06,0.13,0.15
7.056,0.01,0.01,0.09,0.09
7.066,0.02,-0.04,0.05,0.07
7.076,0.04,-0.06,-0.01,0.08
7.086,0.05,-0.05,-0.03,0.08
7.096,0.00,-0.02,-0.02,0.03
7.106,-0.05,0.03,-0.05,0.08
7.116,-0.09,0.04,-0.08,0.12
7.126,-0.09,0.04,-0.05,0.12
7.136,-0.07,0.04,0.01,0.08
7.146,-0.04,0.02,0.06,0.07
7.156,0.01,0.00,0.07,0.07
7.166,0.00,-0.01,0.06,0.06
7.176,0.00,-0.02,0.02,0.03
7.186,0.00,0.00,0.02,0.02
7.196,0.01,0.02,0.04,0.04
7.206,0.03,0.04,-0.00,0.05
7.216,0.04,0.02,-0.03,0.05
7.226,0.01,-0.00,0.03,0.03
7.236,0.01,-0.03,0.01,0.03
7.246,-0.02,-0.02,-0.09,0.09
7.256,-0.03,-0.02,-0.08,0.08
7.266,-0.02,-0.01,0.02,0.03
7.276,0.02,0.02,0.01,0.03
7.286,0.07,0.02,-0.05,0.09
7.296,0.07,-0.01,-0.02,0.08
7.306,0.05,-0.03,0.06,0.08
7.316,0.01,-0.03,0.06,0.07
7.326,0.01,0.01,0.02,0.03
7.336,0.00,0.03,0.03,0.04
7.346,0.01,0.01,0.01,0.02
7.356,-0.01,-0.01,-0.01,0.02
7.366,-0.03,-0.02,-0.01,0.04
7.376,-0.05,-0.02,0.01,0.06
7.386,-0.04,-0.01,0.02,0.04
7.396,-0.03,0.03,0.02,0.05
7.406,-0.02,0.05,-0.01,0.05
7.416,-0.01,0.02,-0.03,0.04
7.426,-0.00,0.00,-0.05,0.05
7.436,-0.02,-0.01,-0.01,0.03
7.446,-0.00,-0.02,0.02,0.03
7.456,-0.01,-0.01,0.02,0.03
7.466,0.00,0.00,0.02,0.02
7.476,-0.01,0.00,0.01,0.01
7.486,0.03,0.02,-0.00,0.03
7.496,0.02,0.04,-0.03,0.06
7.506,-0.00,0.03,-0.03,0.04
7.516,0.01,0.03,0.01,0.03
7.526,0.01,0.01,0.01,0.01
7.536,0.02,-0.01,0.02,0.03
7.546,0.01,0.00,0.03,0.03
7.556,0.01,0.01,0.01,0.02
7.566,-0.01,0.01,-0.02,0.02
7.576,-0.00,0.01,0.00,0.01
7.586,-0.01,0.02,0.00,0.02
7.596,0.00,0.01,0.00,0.01
7.606,0.01,0.03,0.01,0.03
7.616,0.00,-0.01,0.01,0.02
7.626,0.00,-0.01,0.02,0.02
7.636,-0.01,0.01,0.02,0.03
7.646,0.01,0.01,0.03,0.03
7.656,0.01,0.01,0.00,0.02
7.666,-0.01,-0.01,-0.01,0.02
7.676,0.00,-0.01,0.00,0.01
7.686,0.00,-0.02,0.01,0.02
7.696,0.00,-0.04,0.02,0.04
7.706,0.01,-0.02,0.03,0.03
7.716,0.01,-0.01,0.03,0.03
7.726,0.02,0.04,0.04,0.06
7.736,0.01,0.05,-0.01,0.05
7.746,0.00,0.04,-0.02,0.04
7.756,-0.00,0.00,-0.04,0.04
7.766,0.01,-0.02,-0.03,0.04
7.776,0.01,-0.03,0.03,0.05
7.786,-0.01,-0.02,0.04,0.04
7.796,0.00,0.00,0.02,0.02
7.806,0.02,0.03,-0.01,0.04
7.816,0.02,0.05,-0.03,0.06
7.826,0.02,0.06,-0.03,0.07
7.836,-0.01,0.08,-0.03,0.08
7.846,0.02,0.04,-0.16,0.17
7.856,-0.03,-0.05,0.06,0.09
7.866,-0.08,-0.15,0.45,0.48
7.876,-0.04,-0.12,0.14,0.18
7.886,0.05,0.03,-0.34,0.34
7.896,0.03,0.10,0.02,0.10
7.906,0.02,0.09,-0.09,0.13
7.916,-0.01,0.04,-0.16,0.17
7.926,-0.05,-0.06,-0.00,0.08
7.936,-0.02,-0.06,-0.00,0.06
7.946,0.05,-0.03,0.02,0.06
7.956,0.08,0.02,0.06,0.11
7.966,0.08,0.04,0.11,0.14
7.976,0.07,0.01,0.16,0.17
7.986,0.06,-0.02,0.14,0.16
7.996,0.06,-0.07,0.06,0.11
8.006,0.05,-0.06,0.01,0.08
8.016,0.01,-0.04,-0.02,0.04
8.026,0.00,0.02,-0.02,0.03
8.036,-0.04,0.03,-0.01,0.06
8.046,-0.06,0.03,-0.03,0.07
8.056,-0.06,0.02,-0.04,0.07
8.066,-0.07,-0.01,-0.04,0.08
8.077,-0.05,-0.02,0.00,0.05
8.086,-0.04,-0.01,0.04,0.06
8.096,-0.04,-0.01,0.06,0.07
8.106,-0.03,0.01,0.05,0.06
8.116,-0.00,0.03,0.03,0.05
8.126,0.03,0.03,0.04,0.06
8.136,0.07,0.04,0.02,0.08
8.146,0.09,0.00,-0.01,0.09
8.156,0.08,-0.00,0.03,0.09
8.166,0.05,-0.00,0.04,0.06
8.177,0.01,-0.01,-0.05,0.05
8.186,-0.04,-0.03,-0.12,0.13
8.197,-0.05,-0.05,-0.03,0.07
8.206,-0.02,-0.03,-0.01,0.03
8.217,0.04,-0.01,-0.07,0.08
8.226,0.06,0.02,-0.06,0.09
8.237,0.05,-0.00,0.04,0.07
8.247,0.05,-0.01,0.05,0.07
8.257,0.04,-0.00,0.03,0.05
8.267,0.01,-0.00,0.04,0.04
8.277,0.02,-0.01,0.04,0.04
8.287,-0.01,-0.00,0.04,0.04
8.297,-0.03,-0.01,0.02,0.04
8.307,-0.04,0.01,-0.03,0.05
8.317,-0.06,0.02,-0.05,0.08
8.326,-0.07,0.03,-0.04,0.08
8.337,-0.05,0.02,-0.04,0.07
8.347,-0.03,0.03,-0.02,0.04
8.357,-0.03,0.00,0.00,0.03
8.367,-0.02,0.00,0.02,0.03
8.377,0.01,-0.01,0.01,0.01
8.387,-0.00,-0.02,0.02,0.02
8.397,0.01,-0.00,-0.01,0.01
8.407,0.00,0.01,-0.02,0.03
8.417,0.02,0.01,-0.02,0.03
8.427,0.02,0.02,0.03,0.04
8.437,0.04,0.02,0.06,0.07
8.447,0.04,0.01,0.05,0.07
8.457,0.05,-0.00,0.04,0.07
8.467,0.05,-0.01,0.02,0.05
8.477,0.03,-0.01,-0.00,0.03
8.487,0.00,0.01,-0.01,0.02
8.497,0.01,0.01,-0.02,0.02
8.507,-0.00,-0.00,-0.02,0.02
8.517,-0.00,0.00,-0.02,0.02
8.527,-0.03,-0.01,0.01,0.03
8.537,0.00,-0.02,0.00,0.02
8.547,-0.04,-0.01,0.02,0.05
8.557,-0.02,-0.01,0.02,0.03
8.567,0.01,-0.00,0.02,0.03
8.577,0.01,-0.01,-0.00,0.01
8.587,-0.01,0.00,-0.01,0.02
8.597,-0.01,0.01,0.00,0.02
8.607,-0.03,0.01,0.01,0.03
8.617,-0.02,0.01,-0.00,0.03
8.627,-0.02,0.01,-0.01,0.03
8.637,-0.03,-0.01,-0.01,0.03
8.647,-0.00,-0.01,-0.03,0.03
8.657,-0.01,-0.00,-0.03,0.03
8.667,-0.01,-0.00,-0.00,0.01
8.677,-0.01,-0.00,0.02,0.02
8.687,0.00,0.01,0.00,0.01
8.697,-0.01,0.03,-0.03,0.04
8.707,-0.02,0.03,-0.05,0.06
8.717,-0.02,0.06,-0.03,0.07
8.727,-0.02,0.08,-0.05,0.10
8.737,0.00,0.08,-0.12,0.14
8.747,-0.05,0.01,-0.25,0.26
8.757,-0.12,-0.09,0.01,0.15
8.767,-0.17,-0.13,0.40,0.45
8.777,-0.10,-0.03,-0.20,0.23
8.787,-0.06,0.10,-0.25,0.27
8.797,-0.04,0.11,-0.04,0.12
8.807,-0.01,0.05,-0.18,0.18
8.817,-0.02,-0.04,-0.07,0.08
8.827,0.01,-0.07,0.03,0.08
8.837,0.05,-0.07,0.14,0.16
8.847,0.10,-0.00,0.10,0.14
8.857,0.10,0.03,-0.03,0.11
8.867,0.07,0.03,-0.02,0.07
8.877,0.06,0.02,0.04,0.08
8.887,0.02,0.01,0.02,0.04
8.897,-0.05,0.00,0.01,0.05
8.907,-0.05,0.01,0.01,0.05
8.917,-0.08,0.03,-0.01,0.08
8.927,-0.05,0.01,-0.03,0.06
8.937,-0.06,0.04,-0.01,0.07
8.947,-0.07,0.04,-0.01,0.08
8.957,-0.05,0.04,-0.01,0.07
8.967,-0.04,0.03,0.02,0.05
8.977,-0.02,0.02,0.03,0.04
8.987,-0.04,-0.00,0.09,0.10
8.997,-0.05,-0.01,0.08,0.10
9.007,-0.07,-0.04,0.04,0.09
9.017,-0.04,-0.03,-0.00,0.05
9.027,-0.03,-0.06,-0.01,0.07
9.037,-0.01,-0.07,0.03,0.08
9.047,0.03,-0.05,0.02,0.06
9.057,0.06,-0.01,-0.04,0.08
9.067,0.06,-0.01,-0.02,0.06
9.077,0.02,-0.00,0.02,0.03
9.087,0.02,0.03,-0.06,0.07
9.097,0.03,0.07,-0.12,0.14
9.107,0.06,0.07,-0.02,0.10
9.117,0.06,0.06,0.06,0.11
9.127,0.05,0.06,0.06,0.10
9.137,0.06,0.03,0.03,0.07
9.147,0.07,0.01,0.03,0.07
9.157,0.06,-0.01,0.03,0.07
9.167,0.05,-0.03,0.01,0.06
9.177,0.01,-0.05,0.03,0.06
9.187,-0.02,-0.06,0.04,0.07
9.197,-0.05,-0.06,0.02,0.08
9.207,-0.06,-0.05,0.01,0.08
9.217,-0.03,-0.04,-0.01,0.05
9.227,-0.01,-0.02,-0.02,0.03
9.237,-0.02,0.01,-0.01,0.02
9.247,-0.05,0.02,0.00,0.05
9.257,-0.05,0.03,0.02,0.06
9.267,-0.07,0.04,0.02,0.09
9.277,-0.02,0.01,-0.01,0.03
9.287,0.00,0.00,-0.00,0.01
9.297,-0.01,-0.01,0.01,0.02
9.307,-0.01,-0.03,0.01,0.04
9.317,-0.00,-0.01,0.02,0.02
9.327,0.00,0.00,-0.01,0.01
9.337,-0.00,-0.00,0.00,0.01
9.347,-0.02,0.01,0.02,0.03
9.357,0.02,0.01,0.01,0.02
9.367,0.01,-0.01,-0.01,0.02
9.377,0.02,0.01,-0.03,0.04
9.387,0.02,0.02,-0.02,0.03
9.397,0.02,0.02,-0.02,0.03
9.407,0.03,0.02,0.01,0.04
9.418,0.03,0.03,0.01,0.04
9.427,-0.00,0.03,0.01,0.03
9.437,-0.00,0.01,0.03,0.03
9.447,0.02,0.01,0.01,0.02
9.457,0.01,-0.00,0.01,0.02
9.468,-0.00,-0.01,0.01,0.01
9.477,-0.00,0.00,0.02,0.02
9.488,-0.03,0.01,0.00,0.03
9.497,-0.01,0.02,-0.02,0.03
9.508,0.01,0.01,-0.03,0.03
9.518,-0.02,0.02,0.00,0.02
9.528,-0.01,0.03,0.02,0.03
9.538,-0.01,0.01,0.02,0.03
9.548,-0.01,-0.00,0.01,0.02
9.558,-0.01,-0.00,-0.01,0.02
9.568,0.00,0.01,-0.04,0.04
9.578,0.01,0.00,-0.00,0.01
9.588,0.01,-0.02,0.05,0.05
9.598,0.00,0.00,0.03,0.03
9.608,0.01,-0.01,-0.01,0.02
9.618,0.02,-0.00,-0.03,0.04
9.628,-0.02,0.01,-0.04,0.04
9.638,-0.00,0.01,-0.04,0.04
9.648,-0.01,0.02,-0.05,0.05
9.658,0.04,0.00,-0.12,0.13
9.668,-0.01,-0.09,0.15,0.18
9.678,-0.08,-0.20,0.50,0.54
9.688,-0.05,-0.14,-0.00,0.15
9.698,-0.01,0.01,-0.30,0.31
9.708,-0.01,0.08,-0.12,0.14
9.718,-0.00,0.05,-0.24,0.24
9.728,-0.04,-0.03,-0.13,0.14
9.738,-0.04,-0.10,-0.01,0.11
9.748,0.01,-0.06,0.03,0.07
9.758,0.09,0.03,0.06,0.11
9.768,0.11,0.09,0.06,0.15
9.778,0.11,0.13,0.08,0.19
9.788,0.08,0.12,0.10,0.18
9.798,0.07,0.08,0.08,0.13
9.808,0.06,0.03,0.05,0.08
9.818,0.03,0.01,0.01,0.03
9.828,0.02,-0.02,0.02,0.03
9.838,-0.01,-0.03,-0.01,0.03
9.848,-0.03,0.00,-0.02,0.03
9.858,-0.05,0.03,-0.05,0.08
9.868,-0.06,0.02,-0.07,0.10
9.878,-0.07,0.02,-0.04,0.08
9.888,-0.07,0.02,0.03,0.07
9.898,-0.05,0.01,0.08,0.09
9.908,-0.03,0.01,0.08,0.09
9.918,-0.02,-0.00,0.05,0.06
9.928,-0.01,0.02,0.02,0.03
9.938,0.01,0.03,0.01,0.04
9.948,0.02,0.03,0.01,0.04
9.958,0.02,-0.00,-0.02,0.03
9.968,0.01,-0.03,0.06,0.06
9.978,0.02,-0.04,0.05,0.06
9.988,-0.01,-0.05,-0.04,0.06
9.998,-0.03,-0.06,-0.13,0.15
10.008,-0.02,-0.07,-0.09,0.11
10.018,-0.02,-0.06,-0.01,0.06
10.028,0.01,-0.02,-0.02,0.03
10.038,0.04,-0.00,-0.02,0.04
10.048,0.06,-0.00,0.05,0.08
10.058,0.05,-0.01,0.07,0.09
10.068,0.03,0.01,0.03,0.04
10.078,0.03,-0.01,0.04,0.05
10.088,0.05,-0.01,0.04,0.07
10.098,0.04,-0.02,0.03,0.05
10.108,0.02,-0.01,0.00,0.02
10.118,0.01,-0.01,-0.01,0.02
10.128,-0.02,0.02,-0.02,0.04
10.138,-0.02,0.06,-0.05,0.08
10.148,-0.01,0.04,-0.04,0.06
10.158,-0.01,0.04,-0.02,0.05
10.168,-0.01,0.01,0.01,0.02
10.178,-0.01,0.00,0.03,0.03
10.188,-0.02,-0.00,0.02,0.03
10.198,-0.03,0.01,0.02,0.03
10.208,-0.02,0.01,0.02,0.03
10.218,-0.03,0.02,0.02,0.04
10.228,-0.02,0.02,-0.00,0.03
10.238,0.01,0.01,-0.02,0.03
10.248,-0.01,0.01,-0.01,0.01
10.258,0.00,0.01,0.01,0.01
10.268,0.00,-0.00,0.01,0.01
10.278,0.01,0.00,0.01,0.01
10.288,0.01,0.00,0.02,0.02
10.298,0.02,0.02,-0.00,0.03
10.308,0.01,0.02,0.01,0.02
10.318,0.02,0.01,-0.01,0.02
10.328,0.00,0.01,-0.00,0.01
10.338,-0.01,-0.00,0.01,0.01
10.348,0.03,-0.02,0.02,0.04
10.358,0.02,-0.04,0.03,0.05
10.368,0.03,-0.03,0.01,0.04
10.378,0.03,-0.00,-0.01,0.03
10.388,0.01,0.01,-0.01,0.02
10.398,0.01,0.01,-0.02,0.03
10.408,0.04,-0.02,-0.02,0.05
10.418,0.04,-0.02,0.01,0.05
10.428,0.02,-0.03,0.03,0.05
10.438,0.02,-0.03,0.04,0.06
10.448,0.01,-0.00,0.02,0.03
10.458,-0.00,0.02,-0.01,0.02
10.468,-0.01,0.04,-0.06,0.07
10.478,-0.02,0.05,-0.07,0.09
10.488,-0.03,0.02,-0.05,0.06
10.498,-0.03,-0.03,0.02,0.05
10.508,-0.01,-0.07,0.07,0.10
10.518,-0.00,-0.07,0.03,0.08
10.528,0.02,-0.06,0.00,0.06
10.538,0.02,-0.01,-0.01,0.03
10.548,-0.01,0.01,-0.05,0.05
10.558,0.00,0.07,-0.09,0.11
10.568,0.01,0.08,-0.16,0.18
10.578,-0.04,-0.03,0.14,0.15
10.588,-0.06,-0.14,0.48,0.50
10.598,-0.01,-0.11,-0.02,0.11
10.608,0.05,0.01,-0.29,0.30
10.618,0.03,0.09,0.02,0.09
10.628,0.02,0.08,-0.21,0.23
10.638,-0.04,0.02,-0.14,0.15
10.648,-0.06,-0.05,0.00,0.08
10.658,-0.01,-0.05,0.00,0.05
10.668,0.06,0.02,0.02,0.07
10.678,0.09,0.05,0.06,0.12
10.688,0.09,0.08,0.10,0.16
10.698,0.08,0.07,0.11,0.15
10.709,0.02,0.02,0.09,0.09
10.718,0.02,-0.00,0.03,0.04
10.728,0.03,-0.01,-0.02,0.04
10.738,0.03,0.02,-0.01,0.04
10.748,0.02,0.02,0.00,0.03
10.759,-0.01,0.05,-0.02,0.05
10.768,-0.05,0.07,-0.07,0.11
10.778,-0.07,0.04,-0.06,0.10
10.789,-0.07,0.03,-0.02,0.08
10.798,-0.06,0.02,0.02,0.07
10.809,-0.04,-0.00,0.06,0.07
10.819,-0.02,-0.00,0.07,0.07
10.829,-0.01,0.01,0.03,0.04
10.839,0.00,0.03,-0.01,0.03
10.848,0.01,0.04,0.02,0.04
10.859,0.02,0.03,0.03,0.04
10.869,0.03,-0.03,-0.02,0.05
10.879,0.01,-0.07,0.04,0.08
10.889,0.02,-0.08,0.06,0.10
10.898,0.01,-0.08,-0.05,0.09
10.909,-0.00,-0.05,-0.13,0.14
10.919,-0.04,-0.06,-0.03,0.08
10.929,-0.00,-0.04,0.01,0.04
10.939,0.04,-0.01,-0.05,0.07
10.949,0.07,-0.00,-0.05,0.09
10.959,0.06,-0.01,0.05,0.08
10.969,0.06,-0.02,0.07,0.09
10.979,0.06,-0.01,0.03,0.07
10.989,0.06,0.00,0.00,0.06
10.999,0.06,0.01,-0.01,0.06
11.009,0.00,0.01,-0.00,0.01
11.019,-0.01,-0.00,0.01,0.01
11.029,-0.02,0.02,-0.00,0.03
11.039,-0.04,0.02,-0.01,0.04
11.049,-0.03,0.04,-0.00,0.05
11.059,-0.02,0.04,-0.02,0.05
11.069,-0.01,0.06,-0.03,0.07
11.079,-0.02,0.02,-0.03,0.04
11.089,-0.02,0.02,0.01,0.03
11.099,-0.02,0.03,0.02,0.04
11.109,-0.00,0.02,0.01,0.02
11.119,-0.00,0.03,0.00,0.03
11.129,-0.01,0.04,0.01,0.04
11.139,0.01,0.06,0.00,0.06
11.149,0.01,0.06,-0.05,0.08
11.159,-0.00,0.03,-0.03,0.04
11.169,-0.01,-0.00,0.01,0.01
11.179,-0.01,-0.04,0.04,0.05
11.189,0.01,-0.03,0.03,0.05
11.199,0.04,-0.02,0.02,0.05
11.209,0.04,0.00,0.00,0.04
11.219,0.02,0.02,-0.01,0.03
11.229,0.00,0.02,-0.02,0.03
11.239,0.01,0.00,-0.03,0.03
11.249,0.01,-0.02,-0.00,0.02
11.259,0.01,-0.04,0.03,0.05
11.269,0.01,-0.04,0.05,0.06
11.279,0.01,-0.02,0.04,0.05
11.289,0.02,-0.01,0.01,0.02
11.299,0.01,-0.01,0.00,0.02
11.309,0.00,-0.01,-0.02,0.02
11.319,-0.01,-0.02,-0.01,0.02
11.329,-0.02,-0.00,0.01,0.02
11.339,-0.01,0.01,0.01,0.02
11.349,0.02,0.03,-0.01,0.04
11.359,0.00,0.01,-0.03,0.03
11.369,-0.01,-0.00,-0.03,0.03
11.379,-0.03,-0.03,-0.02,0.04
11.389,-0.03,-0.03,0.01,0.05
11.399,-0.01,-0.02,0.06,0.06
11.409,0.01,0.01,0.04,0.04
11.419,0.03,0.04,-0.01,0.05
11.429,0.03,0.07,-0.04,0.09
11.439,0.01,0.07,-0.05,0.08
11.449,-0.01,0.07,-0.04,0.08
11.459,-0.00,0.06,-0.02,0.07
11.469,0.02,0.06,-0.09,0.11
11.479,0.01,0.01,-0.06,0.06
11.489,-0.03,-0.09,0.33,0.34
11.499,-0.04,-0.14,0.33,0.36
11.509,0.05,-0.00,-0.30,0.30
11.519,0.02,0.11,-0.07,0.13
11.529,0.02,0.12,-0.06,0.14
11.539,-0.02,0.05,-0.22,0.22
11.549,-0.04,-0.09,-0.03,0.10
11.559,-0.02,-0.12,0.03,0.13
11.569,0.03,-0.08,-0.00,0.08
11.579,0.06,0.01,0.03,0.06
11.589,0.06,0.07,0.06,0.11
11.599,0.04,0.06,0.10,0.12
11.609,0.04,0.01,0.09,0.10
11.619,0.03,-0.05,0.04,0.08
11.629,-0.00,-0.09,0.01,0.09
11.639,0.02,-0.09,-0.03,0.10
11.649,0.00,-0.06,-0.03,0.07
11.659,-0.03,0.00,-0.03,0.04
11.669,-0.03,0.05,-0.05,0.07
11.679,-0.06,0.06,-0.05,0.10
11.689,-0.05,0.04,-0.03,0.07
11.699,-0.02,0.03,0.04,0.05
11.709,-0.00,0.01,0.09,0.09
11.719,0.00,-0.01,0.09,0.09
11.729,0.02,-0.01,0.05,0.06
11.739,0.01,0.02,0.01,0.02
11.749,0.02,0.05,0.02,0.05
11.759,0.02,0.07,0.03,0.08
11.769,0.03,0.05,0.01,0.06
11.779,0.01,-0.00,-0.00,0.01
11.789,0.02,-0.00,0.05,0.05
11.799,0.02,-0.04,0.02,0.05
11.809,0.02,-0.07,-0.07,0.10
11.819,-0.00,-0.08,-0.06,0.10
11.829,-0.01,-0.04,0.01,0.04
11.839,0.01,0.01,-0.00,0.02
11.849,0.04,0.04,-0.02,0.07
11.859,0.05,0.04,0.00,0.07
11.869,0.05,0.02,0.05,0.07
11.879,0.05,-0.01,0.05,0.07
11.889,0.03,-0.02,0.01,0.04
11.900,0.06,-0.06,0.04,0.09
11.909,0.03,-0.06,0.03,0.07
11.919,0.01,-0.03,0.01,0.03
11.930,-0.02,0.00,0.01,0.02
11.939,-0.03,0.02,0.02,0.04
11.950,-0.01,0.05,0.02,0.06
11.959,-0.00,0.06,-0.02,0.06
11.970,0.01,0.05,0.01,0.05
11.980,0.03,0.02,0.01,0.04
11.990,0.03,-0.00,0.02,0.03
12.000,0.01,-0.03,0.01,0.04
12.009,0.01,-0.05,0.02,0.05
12.019,0.02,-0.04,0.05,0.06
12.030,-0.00,-0.02,0.04,0.04
12.039,0.01,0.03,0.02,0.04
12.050,0.04,0.05,0.01,0.06
12.059,0.02,0.05,-0.00,0.05
12.070,0.03,0.04,-0.02,0.05
12.080,0.03,0.03,-0.03,0.05
12.090,0.05,0.03,-0.02,0.07
12.100,0.03,0.02,-0.01,0.03
12.109,0.02,-0.01,0.01,0.03
12.120,0.01,-0.04,0.03,0.05
12.130,0.01,-0.05,0.02,0.05
12.140,0.01,-0.04,0.02,0.04
12.150,0.01,-0.01,0.01,0.02
12.160,-0.00,0.02,0.01,0.02
12.169,0.02,0.03,0.00,0.04
12.180,0.00,0.00,-0.04,0.04
12.190,-0.02,-0.02,-0.04,0.05
12.200,-0.01,-0.03,-0.02,0.03
12.210,-0.02,-0.02,-0.01,0.03
12.220,-0.01,-0.00,0.01,0.01
12.230,0.02,0.01,0.04,0.05
12.240,0.02,0.02,0.05,0.05
12.250,0.02,0.01,0.03,0.03
12.260,-0.01,0.00,-0.03,0.03
12.270,-0.02,0.01,-0.04,0.04
12.280,-0.02,-0.01,-0.06,0.07
12.290,-0.03,-0.00,-0.04,0.05
12.300,-0.02,-0.01,-0.01,0.02
12.309,-0.00,0.01,0.04,0.04
12.320,0.03,0.01,0.02,0.04
12.330,0.06,0.02,-0.02,0.07
12.340,0.05,0.04,-0.02,0.07
12.350,0.05,0.06,0.02,0.08
12.360,0.04,0.07,0.04,0.09
12.370,0.05,0.07,-0.01,0.09
12.380,-0.00,-0.00,-0.08,0.08
12.390,-0.07,-0.07,0.09,0.13
12.400,-0.10,-0.06,0.30,0.32
12.410,-0.05,-0.00,-0.27,0.28
12.420,-0.03,0.06,-0.23,0.24
12.430,-0.02,0.06,-0.02,0.07
12.440,0.02,0.03,-0.16,0.17
12.450,-0.01,-0.04,-0.02,0.04
12.460,0.01,-0.06,0.08,0.10
12.470,0.04,-0.02,0.12,0.13
12.480,0.06,0.03,0.04,0.08
12.490,0.07,0.05,-0.04,0.09
12.500,0.07,0.05,-0.00,0.08
12.510,0.03,0.00,0.06,0.07
12.520,0.02,-0.01,0.04,0.05
12.530,0.00,-0.04,0.00,0.04
12.540,0.00,-0.03,0.00,0.03
12.550,-0.03,-0.03,0.02,0.05
12.560,-0.05,-0.01,0.03,0.06
12.570,-0.05,0.00,0.01,0.05
12.580,-0.05,-0.01,-0.02,0.05
12.590,-0.04,-0.01,-0.04,0.06
12.600,-0.03,0.01,-0.02,0.04
12.610,-0.02,0.01,0.02,0.03
12.620,-0.04,-0.01,0.02,0.04
12.630,-0.04,-0.01,0.03,0.06
12.640,-0.06,0.01,0.00,0.06
12.650,-0.05,0.05,-0.02,0.07
12.660,0.01,0.07,-0.01,0.07
12.670,0.02,0.03,-0.01,0.03
12.680,0.04,-0.01,0.02,0.04
12.690,0.03,0.00,0.02,0.04
12.700,0.03,0.01,-0.00,0.03
12.710,-0.02,-0.02,0.01,0.03
12.720,-0.04,-0.04,-0.01,0.06
12.730,-0.03,-0.02,-0.14,0.14
12.740,0.00,0.01,-0.11,0.11
12.750,0.02,0.02,0.00,0.03
12.760,0.04,0.03,0.03,0.05
12.770,0.03,0.01,0.01,0.03
12.780,0.02,-0.02,0.01,0.03
12.790,0.00,-0.03,-0.03,0.05
12.800,-0.02,-0.04,-0.04,0.06
12.810,-0.04,-0.03,-0.01,0.05
12.820,-0.06,-0.02,-0.01,0.06
12.830,-0.08,-0.01,-0.05,0.09
12.840,-0.06,0.00,-0.07,0.09
12.850,-0.05,0.02,-0.07,0.09
12.860,-0.03,0.01,-0.06,0.06
12.870,-0.01,0.02,-0.03,0.03
12.880,-0.03,0.01,0.01,0.03
12.890,-0.03,0.01,0.04,0.05
12.900,-0.03,-0.02,0.04,0.05
12.910,-0.03,-0.01,0.03,0.04
12.920,-0.01,0.02,0.02,0.03
12.930,-0.00,0.03,0.01,0.03
12.940,-0.01,0.02,-0.00,0.02
12.950,-0.03,0.02,-0.03,0.04
12.960,-0.01,0.01,-0.02,0.03
12.970,0.01,0.01,0.00,0.01
12.980,0.01,0.01,0.02,0.03
12.990,0.03,0.01,-0.00,0.03
13.000,0.03,0.04,0.01,0.05
13.010,0.02,0.05,0.01,0.06
13.020,-0.00,0.05,0.00,0.05
13.030,0.00,0.03,-0.01,0.03
13.040,-0.00,0.00,-0.01,0.02
13.050,-0.00,-0.02,0.01,0.02
13.060,0.00,-0.01,-0.00,0.01
13.070,0.01,-0.02,0.01,0.02
13.080,0.03,-0.01,-0.00,0.03
13.090,0.04,-0.00,0.00,0.04
13.100,0.01,0.00,0.02,0.02
13.110,0.03,-0.01,0.03,0.05
13.120,-0.00,-0.01,0.02,0.03
13.130,-0.04,-0.01,-0.01,0.04
13.140,-0.03,-0.01,-0.03,0.05
13.150,-0.03,-0.02,-0.04,0.06
13.160,-0.02,-0.02,-0.02,0.04
13.170,0.00,-0.04,0.03,0.05
13.180,0.01,-0.05,0.04,0.07
13.190,0.02,-0.03,0.01,0.03
13.200,0.01,0.01,-0.03,0.03
13.210,-0.01,0.04,-0.03,0.05
13.220,-0.02,0.07,-0.03,0.08
13.231,-0.01,0.09,-0.03,0.09
13.240,-0.02,0.07,-0.11,0.13
13.250,-0.03,-0.01,-0.09,0.09
13.261,-0.09,-0.11,0.39,0.41
13.270,-0.08,-0.06,0.15,0.19
13.281,-0.03,0.09,-0.23,0.25
13.291,-0.01,0.14,-0.06,0.15
13.301,0.01,0.08,-0.18,0.20
13.310,-0.01,-0.04,-0.16,0.17
13.321,-0.03,-0.10,-0.04,0.11
13.331,-0.00,-0.09,0.04,0.10
13.341,0.06,-0.01,0.09,0.11
13.351,0.11,0.04,0.05,0.13
13.360,0.10,0.04,0.05,0.12
13.371,0.10,0.01,0.10,0.14
13.381,0.04,-0.03,0.09,0.10
13.391,0.01,-0.05,0.02,0.06
13.401,-0.01,-0.06,-0.02,0.06
13.411,-0.01,-0.01,-0.03,0.04
13.421,-0.01,0.01,-0.02,0.03
13.431,-0.01,0.01,-0.01,0.02
13.441,-0.01,0.01,-0.03,0.04
13.451,-0.04,-0.01,-0.03,0.05
13.461,-0.06,-0.01,-0.02,0.06
13.471,-0.03,0.00,0.02,0.03
13.481,-0.03,0.02,0.06,0.07
13.491,-0.03,0.01,0.07,0.07
13.501,0.01,0.01,0.01,0.02
13.511,-0.01,-0.00,-0.00,0.01
13.521,-0.01,0.00,0.01,0.01
13.531,-0.01,-0.00,-0.00,0.01
13.541,-0.00,0.01,0.03,0.03
13.551,0.02,-0.01,0.08,0.08
13.561,0.03,0.02,0.07,0.08
13.571,0.03,0.01,-0.01,0.03
13.581,0.00,-0.00,-0.06,0.06
13.591,-0.03,0.01,-0.11,0.12
13.601,-0.02,0.02,-0.10,0.11
13.611,0.02,0.02,-0.07,0.07
13.621,0.02,-0.00,-0.01,0.03
13.631,0.04,-0.03,0.04,0.06
13.641,0.05,-0.03,0.04,0.07
13.651,0.05,-0.04,0.01,0.07
13.661,0.05,-0.02,0.01,0.05
13.671,0.02,0.01,0.02,0.03
13.681,0.01,0.02,0.04,0.05
13.691,-0.01,0.02,0.03,0.04
13.701,-0.03,0.02,0.00,0.04
13.711,-0.04,0.02,-0.03,0.05
13.721,-0.03,0.02,-0.02,0.04
13.731,-0.03,0.02,-0.03,0.05
13.741,-0.01,0.02,-0.03,0.04
13.751,-0.03,0.00,-0.00,0.03
13.761,-0.03,-0.00,-0.00,0.03
13.771,-0.03,0.02,0.01,0.03
13.781,-0.01,0.01,-0.00,0.01
13.791,0.02,-0.01,-0.01,0.02
13.801,-0.01,-0.01,0.00,0.02
13.811,-0.01,-0.01,0.01,0.02
13.821,-0.00,0.01,0.00,0.02
13.831,0.02,0.03,0.01,0.03
13.841,0.01,0.01,-0.01,0.02
13.851,0.02,0.01,-0.00,0.02
13.861,0.03,-0.01,0.01,0.03
13.871,0.04,-0.05,0.01,0.07
13.881,0.03,-0.06,0.05,0.08
13.891,0.01,-0.01,0.05,0.05
13.901,0.00,0.02,0.03,0.03
13.911,-0.00,0.06,-0.01,0.06
13.921,0.01,0.07,-0.05,0.09
13.931,0.01,0.03,-0.04,0.05
13.941,0.01,-0.01,0.00,0.01
13.951,0.01,-0.03,0.03,0.05
13.961,0.01,-0.05,0.05,0.07
13.971,0.01,-0.02,0.04,0.05
13.981,0.00,-0.02,0.03,0.04
13.991,0.01,0.02,-0.01,0.03
14.001,0.02,0.02,-0.06,0.06
14.011,0.01,0.02,-0.01,0.02
14.021,-0.01,0.01,0.01,0.02
14.031,0.01,-0.02,0.04,0.04
14.041,0.01,-0.03,0.07,0.07
14.051,0.00,-0.02,0.02,0.03
14.061,0.01,0.02,-0.03,0.03
14.071,0.00,0.03,-0.05,0.06
14.081,0.00,0.02,-0.02,0.03
14.091,-0.00,-0.01,0.02,0.02
14.101,-0.01,-0.03,0.04,0.05
14.111,0.01,-0.02,0.02,0.03
14.121,0.06,0.00,-0.01,0.06
14.131,0.05,0.03,-0.02,0.06
14.141,0.03,0.06,-0.03,0.07
14.151,0.03,0.10,-0.09,0.14
14.161,0.01,0.04,-0.15,0.16
14.171,-0.05,-0.07,0.17,0.19
14.181,-0.07,-0.15,0.42,0.45
14.191,-0.02,-0.07,-0.14,0.16
14.201,0.02,0.05,-0.15,0.16
14.211,0.02,0.09,-0.02,0.10
14.221,-0.02,0.06,-0.21,0.22
14.231,-0.04,-0.02,-0.08,0.09
14.241,-0.02,-0.05,-0.03,0.07
14.251,0.01,-0.03,-0.01,0.03
14.261,0.04,0.00,0.04,0.05
14.271,0.07,0.03,0.08,0.11
14.281,0.09,0.04,0.14,0.17
14.291,0.06,0.02,0.17,0.18
14.301,0.05,-0.00,0.07,0.08
14.311,0.03,-0.03,-0.02,0.05
14.321,0.02,-0.03,-0.05,0.07
14.331,0.01,-0.04,-0.01,0.05
14.341,-0.02,-0.03,-0.01,0.03
14.351,-0.05,0.00,-0.02,0.06
14.361,-0.07,0.03,-0.06,0.10
14.371,-0.06,0.05,-0.05,0.09
14.381,-0.04,0.07,-0.02,0.08
14.391,-0.02,0.05,0.01,0.06
14.401,-0.02,0.01,0.04,0.05
14.411,-0.02,-0.03,0.04,0.05
14.421,-0.03,-0.02,0.02,0.04
14.431,-0.01,-0.02,0.05,0.06
14.441,0.03,0.01,0.06,0.07
14.451,0.04,0.03,0.03,0.06
14.461,0.05,0.03,-0.05,0.08
14.471,0.04,0.01,0.01,0.04
14.481,0.02,0.00,0.04,0.04
14.491,0.02,0.00,-0.05,0.05
14.501,-0.02,-0.01,-0.11,0.11
14.511,-0.02,-0.06,-0.04,0.08
14.521,-0.01,-0.03,0.02,0.04
14.532,0.03,0.02,-0.02,0.04
14.541,0.07,0.01,-0.04,0.08
14.551,0.06,0.00,0.03,0.07
14.561,0.06,-0.00,0.05,0.08
14.571,0.01,0.01,0.00,0.02
14.581,-0.00,0.01,0.02,0.02
14.591,0.00,0.00,0.02,0.02
14.602,-0.01,-0.03,-0.00,0.03
14.612,-0.02,-0.02,-0.03,0.04
14.621,-0.04,-0.00,-0.03,0.05
14.632,-0.06,0.01,-0.02,0.06
14.642,-0.04,0.03,-0.03,0.06
14.652,-0.01,0.02,-0.03,0.04
14.662,0.00,0.03,-0.02,0.03
14.672,0.00,0.02,-0.02,0.03
14.681,-0.00,-0.00,0.00,0.00
14.692,0.00,0.00,0.00,0.01
14.702,-0.02,-0.01,-0.02,0.03
14.712,-0.00,-0.01,-0.02,0.02
14.722,0.01,-0.03,-0.01,0.03
14.732,0.02,-0.02,-0.00,0.03
14.742,0.01,0.00,0.02,0.02
14.752,0.04,0.03,0.04,0.06
14.762,0.03,0.03,0.01,0.04
14.772,0.02,0.03,-0.00,0.04
14.782,0.01,0.03,-0.00,0.03
14.792,0.00,0.03,-0.01,0.03
14.802,0.00,0.02,0.00,0.02
14.812,-0.00,0.01,0.00,0.01
14.822,-0.01,0.00,-0.01,0.02
14.832,-0.01,-0.02,-0.01,0.02
14.842,0.00,-0.01,-0.00,0.02
14.852,-0.00,-0.02,0.01,0.02
14.862,-0.01,-0.01,0.01,0.02
14.872,-0.01,0.01,-0.02,0.02
14.882,-0.00,0.02,-0.01,0.02
14.892,-0.00,0.02,-0.01,0.02
14.902,0.02,0.00,-0.00,0.02
14.912,-0.00,-0.01,-0.00,0.01
14.922,0.01,-0.02,0.01,0.02
14.932,0.02,-0.03,-0.00,0.04
14.942,0.01,-0.03,0.01,0.03
14.952,0.02,-0.00,0.03,0.04
14.962,0.02,0.02,0.03,0.04
14.972,0.01,0.03,-0.01,0.03
14.982,0.04,0.03,-0.04,0.06
14.992,0.04,-0.00,-0.05,0.07
15.002,0.01,-0.02,0.00,0.03
15.012,0.01,-0.04,0.04,0.06
15.022,0.02,-0.05,0.03,0.06
15.032,0.03,-0.02,0.00,0.04
15.042,0.04,0.03,-0.03,0.06
15.052,0.01,0.06,-0.04,0.07
15.062,-0.00,0.05,-0.01,0.05
15.072,0.02,0.07,-0.00,0.08
15.082,0.05,0.06,-0.06,0.10
15.092,0.04,-0.01,-0.07,0.09
15.102,-0.01,-0.10,0.26,0.28
15.112,-0.03,-0.14,0.36,0.38
15.122,0.01,-0.02,-0.19,0.19
15.132,0.03,0.08,-0.06,0.10
15.142,-0.00,0.10,-0.01,0.10
15.152,-0.03,0.05,-0.22,0.23
15.162,-0.08,-0.04,-0.09,0.13
15.172,-0.03,-0.08,-0.03,0.09
15.182,0.02,-0.04,-0.02,0.05
15.192,0.06,0.01,0.05,0.08
15.202,0.09,0.04,0.08,0.13
15.212,0.07,0.05,0.13,0.16
15.222,0.06,0.03,0.11,0.13
15.232,0.03,-0.03,0.07,0.08
15.242,0.04,-0.04,-0.00,0.06
15.252,0.04,-0.04,0.00,0.06
15.262,0.03,-0.03,-0.00,0.04
15.272,-0.03,-0.01,-0.00,0.03
15.282,-0.02,0.02,-0.01,0.03
15.292,-0.03,0.04,-0.02,0.05
15.302,-0.02,0.03,-0.04,0.05
15.312,-0.02,0.02,0.01,0.03
15.322,-0.03,0.02,0.05,0.06
15.332,-0.01,-0.01,0.06,0.06
15.342,0.01,-0.02,0.05,0.05
15.352,-0.00,-0.02,0.04,0.04
15.362,0.00,0.01,0.02,0.02
15.372,0.03,0.03,0.02,0.05
15.382,0.02,0.04,0.01,0.05
15.392,0.04,0.03,-0.04,0.06
15.402,0.01,-0.01,0.03,0.04
15.412,0.01,-0.02,0.05,0.05
15.422,-0.01,-0.03,-0.07,0.07
15.432,-0.02,-0.05,-0.13,0.14
15.442,-0.01,-0.05,-0.05,0.07
15.452,-0.01,-0.02,-0.01,0.02
15.462,0.05,0.02,-0.05,0.07
15.472,0.08,0.01,-0.04,0.09
15.482,0.10,0.01,0.03,0.10
15.492,0.07,0.01,0.05,0.09
15.502,0.05,-0.00,0.03,0.06
15.512,0.04,-0.02,0.03,0.05
15.522,0.01,-0.02,0.03,0.04
15.532,0.01,-0.03,0.01,0.03
15.542,0.01,-0.03,0.01,0.03
15.552,-0.03,-0.01,-0.01,0.03
15.562,-0.04,0.01,-0.01,0.04
15.572,-0.04,0.03,-0.01,0.05
15.582,-0.04,0.03,-0.02,0.05
15.592,-0.04,0.03,-0.03,0.05
15.603,-0.00,0.01,-0.02,0.03
15.612,-0.00,0.00,-0.01,0.01
15.622,0.00,0.00,-0.00,0.01
15.632,0.01,-0.01,-0.01,0.01
15.642,-0.03,0.01,-0.01,0.03
15.652,-0.03,0.00,-0.01,0.03
15.662,-0.01,-0.01,0.02,0.02
15.672,0.01,-0.02,0.02,0.03
15.682,0.02,-0.00,0.01,0.02
15.692,0.04,0.03,-0.01,0.05
15.702,0.05,0.02,-0.01,0.06
15.712,0.06,0.04,-0.02,0.08
15.722,0.02,0.03,-0.01,0.04
15.732,0.02,0.00,-0.03,0.03
15.742,-0.01,-0.02,-0.01,0.03
15.752,-0.01,-0.04,0.02,0.04
15.762,-0.01,-0.02,0.04,0.04
15.772,0.01,-0.01,0.03,0.04
15.782,-0.01,-0.01,0.00,0.01
15.792,-0.01,0.00,-0.03,0.03
15.802,-0.00,0.01,-0.00,0.01
15.812,-0.03,0.01,0.01,0.03
15.822,-0.01,0.00,0.01,0.01
15.832,0.01,-0.00,0.00,0.01
15.842,0.00,0.01,0.03,0.03
15.853,0.01,0.04,0.03,0.05
15.863,0.03,0.04,0.01,0.05
15.873,0.01,0.03,-0.01,0.04
15.883,-0.01,-0.01,-0.05,0.05
15.893,-0.02,-0.05,-0.05,0.07
15.903,-0.03,-0.07,-0.00,0.07
15.913,-0.02,-0.07,0.04,0.08
15.923,0.00,-0.03,0.05,0.06
15.933,0.04,-0.04,0.05,0.07
15.943,0.06,0.01,0.00,0.06
15.953,0.06,0.00,0.00,0.06
15.963,0.03,0.03,0.02,0.05
15.973,0.00,0.05,-0.01,0.05
15.983,0.01,0.06,0.01,0.06
15.993,0.02,0.04,-0.13,0.14
16.003,-0.04,-0.01,-0.11,0.12
16.013,-0.13,-0.11,0.27,0.32
16.022,-0.15,-0.06,0.05,0.17
16.032,-0.08,0.03,-0.29,0.30
16.043,-0.05,0.07,0.06,0.10
16.053,0.02,0.06,-0.13,0.15
16.063,0.01,0.01,-0.15,0.15
16.073,0.00,-0.03,-0.04,0.05
16.083,0.05,-0.01,0.10,0.11
16.093,0.06,0.01,0.17,0.18
16.103,0.08,0.01,0.04,0.09
16.113,0.07,-0.01,-0.03,0.08
16.123,0.05,0.00,0.04,0.06
16.133,0.02,-0.01,0.06,0.06
16.143,-0.03,-0.00,-0.01,0.03
16.153,-0.05,-0.01,-0.06,0.08
16.163,-0.05,-0.03,-0.06,0.08
16.173,-0.04,-0.03,-0.02,0.06
16.183,-0.05,-0.01,-0.02,0.05
16.193,-0.05,0.00,-0.02,0.06
16.203,-0.05,0.03,-0.01,0.06
16.213,-0.02,0.02,0.00,0.03
16.223,-0.02,0.00,0.02,0.03
16.233,-0.03,-0.02,0.05,0.06
16.243,-0.04,-0.01,0.02,0.05
16.253,-0.05,0.02,-0.00,0.06
16.263,-0.05,0.04,-0.02,0.06
16.273,-0.03,0.05,-0.02,0.06
16.283,-0.01,0.01,-0.03,0.03
16.293,-0.01,-0.01,-0.04,0.04
16.303,-0.04,-0.01,-0.05,0.06
16.313,-0.07,0.03,-0.09,0.12
16.323,-0.07,0.01,-0.06,0.09
16.333,-0.11,-0.00,-0.01,0.11
16.343,-0.06,0.00,-0.11,0.13
16.353,-0.02,0.02,-0.24,0.24
16.363,0.02,0.02,-0.09,0.09
16.373,0.04,0.00,0.06,0.07
16.383,0.04,-0.00,0.07,0.09
16.393,0.02,-0.01,0.03,0.03
16.403,0.02,-0.01,0.03,0.03
16.413,0.02,-0.00,0.07,0.07
16.423,0.04,0.03,0.07,0.09
16.433,0.04,0.02,0.05,0.07
16.443,0.02,0.00,0.06,0.06
16.453,-0.02,0.01,0.04,0.04
16.463,-0.05,0.01,-0.01,0.06
16.473,-0.07,0.02,-0.04,0.09
16.483,-0.07,0.01,-0.07,0.10
16.493,-0.07,0.00,-0.07,0.10
16.503,-0.07,0.01,-0.02,0.07
16.513,-0.07,-0.03,0.01,0.07
16.523,-0.05,-0.05,0.01,0.07
16.533,-0.05,-0.03,-0.01,0.06
16.543,-0.05,-0.04,-0.03,0.07
16.553,-0.04,-0.02,-0.01,0.05
16.563,-0.03,-0.00,-0.01,0.03
16.573,-0.01,0.00,0.00,0.01
16.583,0.01,0.03,-0.00,0.04
16.593,0.02,0.04,-0.02,0.05
16.603,0.05,0.04,0.00,0.07
16.613,0.03,0.02,0.02,0.04
16.623,0.04,-0.01,-0.00,0.04
16.633,0.04,-0.03,-0.00,0.05
16.643,0.05,-0.03,-0.00,0.06
16.653,0.04,-0.01,-0.01,0.04
16.663,0.04,0.00,-0.01,0.04
16.673,0.03,0.01,0.00,0.03
16.683,0.02,0.00,0.03,0.04
16.693,0.02,0.00,0.05,0.05
16.703,-0.00,0.01,0.04,0.04
16.713,-0.03,0.02,0.02,0.04
16.723,-0.02,0.03,-0.02,0.04
16.733,-0.02,0.01,-0.04,0.05
16.743,-0.03,-0.01,-0.03,0.05
16.753,-0.03,-0.03,-0.02,0.04
16.763,-0.02,-0.04,0.02,0.05
16.773,-0.01,-0.03,0.03,0.04
16.783,0.00,-0.01,0.01,0.01
16.793,0.01,0.03,-0.00,0.03
16.803,0.01,0.04,-0.00,0.04
16.813,0.01,0.07,-0.03,0.07
16.823,0.02,0.07,-0.08,0.11
16.833,0.02,0.00,-0.14,0.14
16.843,-0.05,-0.10,0.20,0.23
16.853,-0.07,-0.14,0.41,0.44
16.863,-0.01,-0.06,-0.17,0.18
16.873,0.02,0.07,-0.14,0.16
16.883,0.03,0.12,-0.12,0.17
16.893,0.01,0.06,-0.24,0.24
16.903,-0.05,-0.03,-0.10,0.12
16.913,-0.04,-0.09,-0.05,0.11
16.923,-0.01,-0.09,0.03,0.10
16.933,0.03,-0.02,0.06,0.07
16.943,0.11,0.04,0.04,0.12
16.953,0.10,0.06,0.07,0.14
16.963,0.08,0.06,0.11,0.15
16.973,0.03,0.02,0.08,0.09
16.983,-0.01,0.01,0.01,0.02
16.993,-0.02,-0.02,-0.01,0.03
17.003,-0.02,-0.01,-0.01,0.03
17.013,-0.00,-0.01,-0.01,0.01
17.023,-0.03,-0.00,-0.02,0.04
17.033,-0.05,-0.01,-0.05,0.07
17.043,-0.04,0.01,-0.05,0.06
17.053,-0.02,0.02,-0.02,0.04
17.063,-0.03,0.01,0.00,0.03
17.073,-0.02,0.02,0.02,0.04
17.083,-0.03,0.01,0.02,0.04
17.093,-0.01,0.02,0.01,0.02
17.103,-0.02,0.02,0.01,0.03
17.113,0.01,0.03,0.05,0.06
17.123,0.02,0.02,0.01,0.03
17.133,0.05,0.00,-0.03,0.06
17.143,0.05,-0.01,0.03,0.06
17.153,0.04,0.01,0.09,0.10
17.163,0.03,0.01,0.02,0.04
17.173,-0.01,-0.00,-0.10,0.10
17.184,-0.01,-0.02,-0.09,0.09
17.194,-0.03,-0.02,-0.01,0.04
17.204,0.01,-0.00,-0.01,0.01
17.213,0.04,0.01,-0.01,0.05
17.224,0.06,0.01,0.02,0.06
17.234,0.05,-0.02,0.02,0.05
17.244,0.02,-0.01,0.00,0.03
17.254,0.03,-0.01,0.01,0.04
17.264,0.04,-0.01,0.05,0.06
17.274,0.03,-0.01,0.04,0.05
17.284,0.01,-0.00,0.01,0.01
17.294,-0.02,-0.00,0.01,0.02
17.304,-0.04,0.01,0.02,0.04
17.314,-0.03,0.02,-0.01,0.04
17.324,0.00,0.01,-0.03,0.04
17.334,0.02,0.01,-0.03,0.04
17.344,0.01,-0.01,-0.02,0.03
17.354,-0.01,-0.01,-0.01,0.02
17.364,-0.00,0.00,0.01,0.01
17.374,-0.00,0.02,-0.01,0.02
17.384,0.00,-0.01,0.00,0.01
17.394,0.01,-0.01,0.02,0.02
17.404,0.01,-0.02,0.01,0.03
17.414,0.03,-0.00,0.01,0.03
17.424,0.02,0.01,0.06,0.06
17.434,0.05,0.01,0.02,0.05
17.444,0.04,0.04,-0.00,0.06
17.454,0.02,0.06,-0.02,0.06
17.464,0.01,0.03,-0.02,0.04
17.474,0.01,0.00,0.00,0.01
17.484,0.00,-0.01,0.02,0.02
17.494,0.01,-0.00,0.03,0.03
17.504,0.03,-0.01,0.01,0.04
17.514,0.03,0.02,-0.01,0.04
17.524,0.03,0.03,0.00,0.04
17.534,0.05,0.04,0.00,0.06
17.544,0.01,0.02,0.02,0.03
17.554,0.03,0.03,-0.01,0.04
17.564,0.04,0.02,0.01,0.05
17.574,0.07,-0.02,0.05,0.09
17.584,0.06,-0.03,0.08,0.10
17.594,0.01,-0.05,0.05,0.07
17.604,-0.01,-0.04,0.04,0.06
17.614,-0.03,-0.03,-0.01,0.05
17.624,-0.03,-0.01,-0.05,0.06
17.634,-0.04,0.00,-0.07,0.08
17.644,-0.01,0.00,-0.06,0.06
17.654,-0.01,0.01,-0.04,0.04
17.664,0.02,0.01,-0.00,0.02
17.674,0.03,0.02,0.02,0.04
17.684,0.01,0.00,0.04,0.04
17.694,-0.03,-0.00,0.00,0.03
17.704,-0.02,0.03,-0.00,0.04
17.714,0.02,0.07,-0.12,0.14
17.724,0.05,0.01,-0.06,0.08
17.734,-0.01,-0.11,0.34,0.35
17.744,-0.04,-0.11,0.21,0.24
17.754,0.00,0.02,-0.36,0.36
17.764,-0.01,0.11,-0.14,0.18
17.774,-0.03,0.10,-0.15,0.18
17.784,-0.06,0.02,-0.22,0.23
17.794,-0.09,-0.09,-0.02,0.13
17.804,-0.01,-0.13,0.03,0.13
17.814,0.07,-0.05,0.04,0.09
17.824,0.12,0.03,0.04,0.13
17.834,0.09,0.09,0.06,0.14
17.844,0.05,0.11,0.06,0.13
17.854,-0.00,0.08,0.06,0.10
17.864,-0.01,0.01,0.02,0.02
17.874,-0.02,-0.04,-0.00,0.04
17.884,0.02,-0.05,0.02,0.06
17.894,0.04,-0.04,0.02,0.06
17.904,0.02,-0.01,0.00,0.03
17.914,-0.01,0.02,-0.04,0.05
17.924,-0.06,0.03,-0.06,0.09
17.934,-0.10,0.03,-0.03,0.11
17.944,-0.10,0.03,0.00,0.10
17.954,-0.07,0.02,-0.01,0.07
17.964,-0.05,-0.00,0.05,0.07
17.974,-0.04,-0.04,0.07,0.09
17.984,-0.00,-0.04,0.03,0.05
17.994,0.03,-0.01,0.02,0.04
18.004,0.05,0.01,0.01,0.05
18.014,0.05,0.02,-0.00,0.06
18.024,0.06,0.02,-0.01,0.06
18.034,0.04,0.01,0.00,0.05
18.044,0.05,-0.02,0.06,0.08
18.054,0.00,-0.03,-0.06,0.07
18.064,-0.03,-0.02,-0.14,0.15
18.074,-0.05,0.00,-0.02,0.05
18.084,-0.02,0.04,-0.00,0.05
18.094,0.05,0.06,-0.06,0.10
18.104,0.09,0.06,-0.03,0.11
18.114,0.07,-0.00,0.04,0.08
18.124,0.06,-0.05,0.05,0.09
18.134,0.02,-0.03,0.03,0.05
18.144,-0.00,-0.00,0.03,0.03
18.154,-0.00,0.01,0.03,0.04
18.164,-0.02,0.02,0.04,0.05
18.174,-0.02,0.02,-0.00,0.03
18.184,-0.03,0.00,-0.04,0.05
18.194,-0.05,-0.01,-0.03,0.06
18.204,-0.07,-0.01,-0.01,0.07
18.214,-0.05,-0.00,-0.02,0.06
18.224,-0.02,-0.01,-0.04,0.04
18.234,-0.00,-0.01,-0.01,0.02
18.244,0.00,-0.00,0.01,0.01
18.254,0.02,0.02,0.00,0.02
18.265,0.01,0.01,-0.01,0.02
18.274,-0.00,-0.01,-0.02,0.03
18.284,-0.01,-0.02,-0.03,0.04
18.294,-0.01,-0.01,-0.02,0.02
18.304,-0.00,-0.01,0.01,0.01
18.314,0.04,-0.01,0.01,0.04
18.324,0.04,0.01,-0.02,0.05
18.334,0.04,0.03,-0.03,0.05
18.344,0.01,0.03,-0.05,0.06
18.354,0.04,0.01,0.01,0.05
18.364,0.03,0.00,0.05,0.06
18.374,0.00,-0.02,0.03,0.04
18.384,-0.01,-0.03,0.01,0.03
18.394,-0.01,0.00,0.01,0.01
18.404,0.01,0.05,0.03,0.05
18.415,0.02,0.06,-0.01,0.07
18.424,0.00,0.06,-0.04,0.07
18.434,-0.02,0.03,-0.03,0.05
18.444,-0.02,-0.01,-0.01,0.03
18.454,-0.04,-0.06,0.03,0.08
18.464,-0.03,-0.06,0.03,0.08
18.475,-0.02,-0.02,0.01,0.03
18.485,-0.02,0.01,-0.02,0.02
18.495,0.01,0.03,-0.03,0.05
18.505,-0.01,0.05,-0.04,0.06
18.514,-0.06,0.06,-0.11,0.14
18.525,-0.08,0.02,-0.31,0.32
18.534,-0.09,-0.06,-0.01,0.11
18.545,-0.04,-0.15,0.46,0.49
18.555,0.03,-0.11,0.12,0.16
18.564,0.14,0.02,-0.26,0.29
18.575,0.10,0.11,0.07,0.16
18.585,0.03,0.09,-0.11,0.15
18.595,-0.05,0.03,-0.15,0.16
18.605,-0.08,-0.06,-0.04,0.10
18.615,-0.03,-0.08,-0.03,0.09
18.625,0.06,-0.03,0.03,0.07
18.635,0.10,0.02,0.06,0.12
18.645,0.12,0.06,0.10,0.17
18.655,0.09,0.05,0.12,0.16
18.665,0.02,0.02,0.08,0.09
18.675,0.02,-0.02,0.02,0.03
18.685,-0.02,-0.04,-0.05,0.07
18.695,0.00,-0.04,-0.06,0.07
18.705,-0.00,0.00,0.01,0.01
18.715,-0.02,0.02,0.01,0.02
18.725,-0.05,0.02,-0.02,0.06
18.735,-0.07,0.03,-0.05,0.09
18.745,-0.05,0.03,0.01,0.06
18.755,-0.03,0.04,0.08,0.09
18.765,-0.01,0.04,0.07,0.08
18.775,-0.00,0.02,0.06,0.06
18.785,0.04,0.02,0.09,0.10
18.795,0.03,-0.01,0.12,0.13
18.805,0.06,0.01,0.15,0.17
18.815,0.10,0.02,0.10,0.15
18.825,0.15,0.03,0.02,0.15
18.835,0.13,0.04,-0.02,0.13
18.845,0.08,0.02,0.02,0.09
18.855,0.03,0.01,-0.02,0.04
18.865,-0.01,-0.03,-0.13,0.14
18.875,-0.06,-0.09,-0.12,0.17
18.885,-0.09,-0.11,-0.01,0.14
18.895,-0.06,-0.10,-0.04,0.13
18.905,-0.02,-0.05,-0.09,0.10
18.915,0.03,-0.01,-0.06,0.07
18.925,0.06,0.01,0.04,0.07
18.935,0.04,0.02,0.02,0.05
18.945,0.03,0.05,0.01,0.06
18.955,0.04,0.02,0.03,0.06
18.965,0.02,0.00,0.01,0.02
18.975,0.02,0.00,0.01,0.02
18.985,0.01,-0.03,0.02,0.04
18.995,-0.00,-0.01,0.01,0.02
19.005,0.00,0.00,-0.04,0.04
19.015,-0.01,0.02,-0.04,0.05
19.025,-0.01,0.03,-0.01,0.04
19.035,-0.00,0.01,-0.00,0.01
19.045,0.02,0.02,-0.02,0.03
19.055,0.01,0.01,-0.06,0.06
19.065,-0.01,-0.01,-0.04,0.04
19.075,-0.02,0.00,-0.03,0.04
19.085,-0.05,0.00,0.02,0.05
19.095,-0.04,-0.01,0.04,0.06
19.105,-0.01,-0.01,-0.00,0.01
19.115,0.00,-0.01,-0.01,0.02
19.125,0.02,0.01,-0.01,0.03
19.135,0.02,0.02,-0.02,0.03
19.145,0.02,0.04,0.03,0.05
19.155,0.01,0.05,0.05,0.07
19.165,-0.01,0.03,0.00,0.03
19.175,-0.02,0.01,-0.03,0.04
19.185,-0.01,-0.01,-0.02,0.03
19.195,-0.01,-0.02,-0.02,0.03
19.205,0.00,-0.03,-0.03,0.05
19.215,-0.02,-0.04,-0.01,0.04
19.225,-0.01,-0.04,0.03,0.05
19.235,0.03,0.00,0.01,0.03
19.245,0.05,0.03,-0.03,0.07
19.255,0.02,0.05,-0.01,0.05
19.265,0.01,0.05,0.01,0.05
19.275,-0.00,0.05,0.01,0.05
19.285,0.01,0.05,-0.01,0.05
19.295,0.02,-0.03,-0.11,0.11
19.305,-0.04,-0.11,0.00,0.12
19.315,-0.10,-0.13,0.28,0.32
19.325,-0.09,-0.04,-0.11,0.15
19.335,-0.05,0.03,-0.26,0.27
19.345,-0.05,0.06,0.04,0.08
19.355,-0.02,0.04,-0.21,0.21
19.365,-0.01,-0.03,-0.14,0.15
19.375,0.02,-0.05,0.01,0.06
19.385,0.06,-0.02,0.12,0.14
19.395,0.11,0.02,0.18,0.21
19.405,0.11,0.06,0.06,0.14
19.415,0.11,0.04,-0.02,0.12
19.425,0.05,0.02,0.02,0.05
19.435,0.01,-0.01,-0.00,0.02
19.445,-0.01,-0.03,-0.03,0.04
19.455,-0.01,-0.05,-0.05,0.07
19.465,-0.02,-0.03,-0.01,0.04
19.475,-0.03,-0.01,0.03,0.04
19.485,-0.02,0.03,0.02,0.04
19.495,-0.02,0.03,-0.01,0.03
19.505,-0.02,0.05,-0.01,0.05
19.515,-0.04,0.01,0.01,0.05
19.525,-0.04,0.00,0.01,0.04
19.535,-0.04,0.01,-0.04,0.05
19.545,-0.01,0.00,0.02,0.03
19.555,-0.02,-0.01,0.07,0.07
19.565,-0.02,0.00,0.06,0.06
19.575,0.00,0.01,0.01,0.02
19.585,0.04,-0.03,-0.01,0.05
19.595,0.03,-0.04,0.01,0.05
19.605,0.01,0.01,0.01,0.02
19.615,0.00,0.04,0.01,0.04
19.625,-0.04,0.02,0.04,0.06
19.635,-0.08,-0.00,0.04,0.09
19.645,-0.06,-0.03,-0.09,0.11
19.655,-0.03,-0.01,-0.14,0.14
19.665,-0.02,-0.01,-0.06,0.06
19.675,0.01,0.01,0.00,0.01
19.685,0.03,0.01,-0.00,0.03
19.695,0.01,-0.03,-0.06,0.07
19.705,-0.02,-0.03,-0.07,0.08
19.715,-0.05,-0.04,-0.05,0.08
19.725,-0.10,-0.05,-0.03,0.11
19.735,-0.13,-0.05,-0.01,0.14
19.745,-0.11,-0.03,-0.04,0.13
19.756,-0.11,-0.01,-0.04,0.12
19.766,-0.10,0.03,-0.12,0.16
19.776,-0.08,0.02,-0.11,0.14
19.786,-0.04,0.03,-0.13,0.14
19.796,-0.01,0.03,-0.14,0.14
19.805,0.04,0.01,-0.09,0.10
19.815,0.09,-0.01,-0.01,0.09
19.826,0.13,-0.06,0.08,0.16
19.835,0.11,-0.11,0.17,0.23
19.845,-0.02,-0.15,0.11,0.19
19.856,-0.15,-0.14,-0.01,0.21
19.866,-0.22,-0.05,-0.08,0.24
19.876,-0.16,0.05,-0.21,0.26
19.886,-0.04,0.14,-0.29,0.33
19.896,0.12,0.13,-0.32,0.36
19.906,0.21,0.02,-0.14,0.25
19.916,0.21,-0.11,0.12,0.27
19.926,0.13,-0.19,0.34,0.41
19.935,0.03,-0.19,0.40,0.44
19.946,0.01,-0.12,0.38,0.40
19.956,0.20,0.03,0.05,0.21
19.966,0.50,0.19,-0.39,0.67
19.976,0.65,0.27,-0.22,0.74
19.986,0.53,0.29,0.27,0.67
19.996,0.25,0.27,0.34,0.50
20.006,-0.04,0.19,0.15,0.24
20.016,-0.26,0.08,0.12,0.30
20.026,-0.34,0.02,0.27,0.44
20.036,-0.25,-0.03,0.34,0.43
20.046,-0.09,-0.05,0.17,0.20
20.056,0.08,-0.02,0.08,0.12
20.066,0.22,0.03,0.21,0.31
20.076,0.25,0.09,0.18,0.32
20.086,0.18,0.08,-0.23,0.31
20.096,0.04,-0.00,-0.41,0.42
20.106,-0.25,-0.10,-0.13,0.30
20.116,-0.49,-0.13,-0.02,0.51
20.126,-0.57,-0.05,-0.23,0.62
20.136,-0.55,0.09,-0.35,0.66
20.146,-0.43,0.23,-0.28,0.56
20.156,-0.26,0.23,0.02,0.34
20.166,-0.06,0.18,-0.01,0.19
20.176,0.03,0.12,-0.24,0.27
20.186,-0.01,0.05,-0.12,0.13
20.196,-0.14,0.02,-0.25,0.29
20.206,-0.26,0.00,-0.05,0.27
20.216,-0.31,-0.00,0.06,0.32
20.226,-0.27,-0.01,-0.10,0.29
20.236,-0.22,0.01,-0.16,0.28
20.246,-0.15,0.02,-0.17,0.23
20.256,-0.10,0.04,-0.22,0.25
20.266,-0.08,0.07,-0.12,0.16
20.276,-0.13,0.06,0.04,0.15
20.286,-0.21,0.02,-0.03,0.22
20.296,-0.31,-0.08,-0.10,0.33
20.306,-0.42,-0.21,-0.22,0.51
20.316,-0.54,-0.31,-0.31,0.69
20.326,-0.59,-0.39,-0.32,0.78
20.336,-0.59,-0.39,-0.29,0.77
20.346,-0.53,-0.33,-0.14,0.64
20.356,-0.44,-0.23,-0.05,0.50
20.366,-0.41,-0.17,-0.10,0.45
20.376,-0.34,-0.16,-0.02,0.38
20.386,-0.23,-0.16,0.08,0.29
20.396,-0.11,-0.20,0.10,0.25
20.406,0.01,-0.18,0.16,0.25
20.416,0.15,-0.10,0.14,0.23
20.426,0.25,-0.01,0.21,0.33
20.436,0.36,0.12,0.20,0.43
20.446,0.47,0.18,0.10,0.51
20.456,0.56,0.23,-0.05,0.61
20.466,0.64,0.23,-0.02,0.68
20.476,0.69,0.17,-0.18,0.73
20.486,0.66,0.06,-0.40,0.77
20.496,0.58,-0.01,-0.23,0.63
20.506,0.52,-0.02,0.15,0.54
20.516,0.45,0.01,0.31,0.54
20.526,0.42,0.06,0.24,0.49
20.536,0.39,0.11,0.30,0.51
20.546,0.39,0.15,0.33,0.53
20.556,0.43,0.16,0.14,0.48
20.566,0.47,0.19,0.04,0.51
20.576,0.44,0.19,0.05,0.48
20.586,0.36,0.14,0.07,0.40
20.596,0.25,0.07,0.04,0.26
20.606,0.12,0.03,0.11,0.17
20.616,0.05,0.04,0.09,0.11
20.626,-0.02,0.09,-0.02,0.10
20.636,-0.03,0.17,-0.05,0.18
20.646,-0.10,0.21,-0.07,0.25
20.656,-0.19,0.18,-0.00,0.26
20.666,-0.22,0.05,0.12,0.26
20.676,-0.22,-0.06,0.16,0.28
20.686,-0.22,-0.14,0.13,0.29
20.696,-0.16,-0.12,0.20,0.28
20.706,-0.16,-0.03,0.16,0.23
20.716,-0.18,0.06,0.02,0.19
20.726,-0.17,0.12,-0.09,0.23
20.736,-0.19,0.13,-0.13,0.27
20.746,-0.17,0.07,-0.03,0.19
20.756,-0.09,-0.03,0.01,0.10
20.766,-0.02,-0.10,0.01,0.10
20.776,0.02,-0.12,0.07,0.14
20.786,0.05,-0.11,0.09,0.15
20.796,0.05,-0.07,-0.00,0.09
20.806,-0.02,-0.04,-0.07,0.09
20.816,-0.02,-0.01,-0.00,0.02
20.826,0.01,0.03,0.01,0.03
20.836,0.02,0.05,-0.01,0.06
20.846,0.04,0.05,-0.00,0.07
20.856,0.06,0.02,0.02,0.07
20.866,0.05,-0.02,0.00,0.06
20.876,0.07,-0.05,-0.03,0.09
20.886,0.06,-0.04,-0.01,0.08
20.896,0.06,-0.01,0.01,0.07
20.906,0.04,0.02,0.02,0.05
20.916,0.02,0.03,0.05,0.06
20.926,0.02,0.04,0.03,0.05
20.936,-0.00,0.03,-0.05,0.05
20.946,-0.02,0.00,-0.05,0.05
20.956,0.01,-0.01,-0.00,0.01
20.966,0.10,-0.13,0.06,0.18
20.976,0.19,-0.31,0.13,0.39
20.986,0.11,-0.33,0.41,0.53
20.996,-0.05,-0.13,0.23,0.26
21.006,-0.22,0.17,-0.18,0.33
21.016,-0.28,0.33,-0.35,0.55
21.026,-0.21,0.29,-0.34,0.49
21.036,-0.03,0.23,-0.57,0.62
21.046,0.06,0.18,-0.35,0.40
21.057,0.11,0.11,0.02,0.16
21.066,0.17,0.00,-0.05,0.18
