time,ax,ay,az,atotal
0.000,0.10,0.04,0.05,0.11
0.010,0.26,-0.27,0.24,0.45
0.020,0.28,-0.31,0.22,0.47
0.030,0.34,-0.24,0.10,0.43
0.040,0.32,-0.16,0.13,0.38
0.050,0.22,-0.09,0.09,0.25
0.060,0.17,-0.01,0.03,0.17
0.070,-0.06,0.10,0.04,0.13
0.080,-0.03,0.16,0.02,0.17
0.090,-0.30,0.17,0.13,0.36
0.100,-1.89,0.39,0.49,1.99
0.110,-1.22,0.03,-0.42,1.29
0.120,-0.11,-0.38,-0.55,0.68
0.130,0.47,-0.58,0.04,0.74
0.140,0.95,-0.50,0.46,1.17
0.150,1.24,-0.28,0.46,1.35
0.160,1.18,-0.14,0.28,1.22
0.170,0.87,-0.10,0.23,0.90
0.180,0.50,-0.19,0.04,0.54
0.190,0.12,-0.35,-0.12,0.39
0.200,-0.34,-0.65,-0.36,0.82
0.210,-0.66,-0.71,-0.50,1.09
0.220,-1.00,-0.63,-0.34,1.22
0.230,-1.24,-0.43,-0.12,1.32
0.240,-1.28,-0.13,0.08,1.29
0.250,-1.00,0.20,0.11,1.02
0.260,-0.34,0.40,0.01,0.53
0.270,0.55,0.39,-0.06,0.68
0.280,1.25,0.34,-0.07,1.30
0.290,1.43,0.25,-0.10,1.46
0.300,0.93,0.15,-0.08,0.95
0.310,0.34,0.13,-0.08,0.37
0.320,0.12,0.19,-0.17,0.28
0.330,0.26,0.34,-0.25,0.49
0.340,0.54,0.47,0.08,0.72
0.350,0.65,0.55,0.57,1.02
0.360,0.52,0.56,0.76,1.08
0.370,0.28,0.46,0.56,0.78
0.380,0.11,0.30,0.33,0.46
0.390,0.17,0.17,0.21,0.32
0.400,0.29,-0.00,0.08,0.30
0.410,0.32,-0.12,0.14,0.37
0.420,0.14,-0.19,0.17,0.29
0.430,-0.26,-0.22,0.05,0.35
0.440,-0.75,-0.28,-0.16,0.82
0.450,-1.17,-0.33,-0.28,1.25
0.460,-1.45,-0.25,-0.18,1.48
0.470,-1.56,-0.11,0.13,1.57
0.481,-1.35,-0.02,0.43,1.42
0.490,-0.92,-0.03,0.31,0.97
0.500,-0.53,-0.15,-0.20,0.58
0.510,-0.46,-0.34,-0.62,0.84
0.521,-0.52,-0.51,-0.71,1.02
0.530,-0.51,-0.60,-0.71,1.06
0.541,-0.33,-0.55,-0.34,0.72
0.551,-0.06,-0.37,0.25,0.45
0.561,0.23,-0.14,0.50,0.56
0.571,0.41,0.12,0.45,0.62
0.581,0.46,0.39,0.30,0.67
0.591,0.33,0.56,0.01,0.65
0.601,0.14,0.66,-0.22,0.70
0.611,0.06,0.69,-0.20,0.72
0.621,0.05,0.58,-0.00,0.58
0.631,0.17,0.35,0.17,0.42
0.641,0.30,0.12,0.13,0.35
0.651,0.18,-0.07,-0.18,0.26
0.661,-0.19,-0.16,-0.61,0.66
0.671,-0.72,-0.21,-0.85,1.13
0.681,-1.18,-0.35,-0.84,1.49
0.691,-1.38,-0.50,-0.74,1.64
0.701,-1.27,-0.64,-0.53,1.52
0.711,-1.00,-0.67,-0.53,1.32
0.721,-0.67,-0.54,-0.67,1.09
0.731,-0.22,-0.26,-0.68,0.76
0.741,0.22,0.08,-0.31,0.39
0.751,0.58,0.31,0.23,0.70
0.761,0.88,0.45,0.68,1.20
0.771,1.04,0.46,0.88,1.44
0.781,1.04,0.36,0.82,1.37
0.791,0.89,0.25,0.72,1.17
0.801,0.71,0.10,0.65,0.97
0.811,0.53,-0.06,0.60,0.80
0.821,0.35,-0.26,0.51,0.67
0.831,0.16,-0.42,0.29,0.54
0.841,0.06,-0.50,-0.11,0.52
0.851,0.07,-0.41,-0.33,0.53
0.861,0.08,-0.32,-0.17,0.38
0.871,-0.02,-0.41,0.03,0.41
0.881,-0.14,-0.58,0.08,0.60
0.891,-0.21,-0.73,0.10,0.77
0.901,-0.21,-0.73,0.21,0.79
0.911,-0.11,-0.54,0.30,0.63
0.921,0.21,-0.29,0.44,0.57
0.931,0.69,-0.18,0.68,0.98
0.941,1.07,-0.22,0.80,1.35
0.951,1.13,-0.27,0.52,1.28
0.961,0.78,-0.24,-0.03,0.82
0.971,0.03,-0.00,-0.42,0.42
0.981,-0.65,0.39,-0.53,0.92
0.991,-1.01,0.80,-0.37,1.34
1.001,-1.01,1.07,-0.07,1.47
1.011,-0.76,1.11,0.13,1.35
1.021,-0.49,1.02,-0.03,1.14
1.031,-0.41,0.96,-0.46,1.14
1.041,-0.43,1.03,-0.69,1.31
1.051,-0.48,1.10,-0.49,1.30
1.061,-0.40,1.03,0.02,1.10
1.071,-0.16,0.82,0.42,0.93
1.081,0.07,0.46,0.39,0.61
1.091,0.24,0.10,0.19,0.32
1.101,0.25,-0.23,0.19,0.39
1.111,0.17,-0.49,0.18,0.55
1.121,0.02,-0.64,-0.10,0.64
1.131,-0.12,-0.81,-0.51,0.96
1.141,-0.24,-1.04,-0.67,1.25
1.151,-0.30,-1.22,-0.50,1.35
1.161,-0.27,-1.25,-0.18,1.29
1.171,-0.07,-1.20,-0.05,1.21
1.181,0.09,-1.09,-0.02,1.09
1.191,0.10,-0.86,0.01,0.87
1.201,-0.08,-0.52,0.03,0.53
1.211,-0.32,-0.18,-0.07,0.38
1.221,-0.52,0.08,-0.24,0.58
1.231,-0.56,0.14,-0.30,0.65
1.241,-0.41,-0.05,-0.23,0.47
1.251,-0.24,-0.42,0.00,0.49
1.261,-0.04,-0.64,0.17,0.66
1.271,0.14,-0.59,0.19,0.64
1.281,0.26,-0.39,0.09,0.47
1.291,0.29,-0.09,-0.20,0.36
1.301,0.24,0.19,-0.53,0.61
1.311,0.21,0.47,-0.64,0.82
1.321,0.17,0.68,-0.41,0.81
1.331,0.12,0.79,0.24,0.83
1.341,0.16,0.77,0.83,1.14
1.351,0.25,0.61,0.84,1.07
1.361,0.32,0.44,0.31,0.63
1.371,0.23,0.28,-0.13,0.38
1.381,-0.08,0.17,-0.15,0.24
1.391,-0.41,0.13,-0.35,0.55
1.401,-0.55,0.12,-0.41,0.69
1.411,-0.53,0.07,-0.11,0.54
1.421,-0.48,-0.00,0.33,0.58
1.431,-0.37,-0.17,0.52,0.66
1.441,-0.20,-0.30,0.61,0.71
1.451,-0.13,-0.39,0.42,0.59
1.461,-0.18,-0.41,-0.13,0.47
1.471,-0.25,-0.24,-0.93,0.99
1.481,-0.27,0.04,-1.32,1.35
1.491,-0.33,0.30,-0.79,0.90
1.501,-0.33,0.39,0.07,0.52
1.511,-0.20,0.27,0.42,0.53
1.521,-0.07,0.04,0.20,0.22
1.531,-0.05,-0.21,-0.10,0.24
1.541,-0.10,-0.35,-0.18,0.40
1.551,-0.19,-0.35,-0.01,0.39
1.561,-0.22,-0.22,0.17,0.36
1.571,-0.15,-0.06,0.27,0.32
1.581,-0.04,0.06,0.30,0.31
1.591,0.09,0.11,0.29,0.32
1.601,0.18,0.11,0.23,0.31
1.611,0.21,0.04,0.12,0.25
1.622,0.21,-0.06,-0.05,0.23
1.632,0.11,-0.11,-0.17,0.22
1.642,-0.05,-0.09,-0.13,0.16
1.652,-0.13,-0.02,-0.05,0.14
1.661,-0.09,0.12,0.05,0.16
1.672,0.00,0.23,-0.02,0.24
1.682,0.05,0.30,-0.14,0.34
1.691,0.03,0.33,-0.12,0.35
1.702,0.01,0.32,-0.08,0.33
1.712,0.02,0.27,-0.10,0.29
1.722,0.10,0.22,-0.09,0.26
1.732,0.16,0.15,-0.08,0.23
1.742,0.17,0.04,-0.08,0.19
1.752,0.07,-0.02,0.01,0.07
1.762,-0.06,-0.08,0.13,0.16
1.772,-0.15,-0.13,0.08,0.22
1.782,-0.15,-0.22,-0.08,0.28
1.792,-0.17,-0.35,-0.18,0.43
1.802,-0.21,-0.47,-0.15,0.54
1.812,-0.30,-0.54,-0.09,0.62
1.822,-0.40,-0.49,-0.07,0.64
1.832,-0.44,-0.40,0.01,0.60
1.842,-0.44,-0.30,0.17,0.56
1.852,-0.38,-0.24,0.42,0.61
1.862,-0.21,-0.24,0.58,0.66
1.872,0.04,-0.29,0.58,0.64
1.882,0.25,-0.40,0.49,0.69
1.892,0.36,-0.57,0.27,0.73
1.902,0.39,-0.63,-0.13,0.75
1.912,0.32,-0.55,-0.62,0.89
1.922,0.20,-0.31,-0.88,0.96
1.932,0.02,0.02,-0.63,0.63
1.942,-0.14,0.38,-0.13,0.42
1.952,-0.14,0.66,0.23,0.72
1.962,-0.03,0.87,0.29,0.92
1.972,0.06,0.92,0.17,0.94
1.982,0.07,0.87,0.07,0.88
1.992,0.02,0.70,-0.01,0.70
2.002,-0.07,0.51,-0.18,0.54
2.012,-0.14,0.33,-0.26,0.44
2.022,-0.15,0.20,-0.16,0.29
2.032,-0.04,0.19,0.08,0.21
2.042,0.03,0.27,0.05,0.28
2.052,0.01,0.21,-0.02,0.22
2.062,-0.06,-0.07,-0.03,0.10
2.072,-0.18,-0.48,-0.01,0.51
2.082,-0.29,-0.83,0.03,0.88
2.092,-0.37,-1.01,0.11,1.07
2.102,-0.34,-0.97,0.16,1.04
2.112,-0.27,-0.74,0.19,0.80
2.122,-0.16,-0.35,0.17,0.42
2.132,-0.03,-0.03,0.17,0.17
2.142,0.11,0.18,0.12,0.24
2.152,0.18,0.29,0.08,0.35
2.162,0.17,0.28,0.02,0.33
2.172,0.10,0.24,-0.10,0.28
2.182,0.07,0.18,-0.18,0.26
2.192,0.04,0.15,-0.16,0.22
2.202,0.02,0.12,-0.08,0.14
2.212,0.03,0.09,-0.03,0.10
2.222,0.00,0.06,0.01,0.06
2.232,-0.08,0.02,-0.00,0.08
2.242,-0.18,0.01,-0.03,0.18
2.252,-0.23,0.03,-0.01,0.24
2.262,-0.23,0.10,0.02,0.25
2.272,-0.17,0.21,-0.02,0.27
2.282,-0.03,0.28,-0.15,0.32
2.292,0.14,0.31,-0.21,0.41
2.302,0.24,0.25,0.00,0.35
2.312,0.21,-0.01,0.23,0.31
2.322,0.12,-0.30,0.23,0.39
2.332,-0.05,-0.51,0.22,0.56
2.342,-0.26,-0.60,0.12,0.67
2.352,-0.39,-0.53,0.00,0.66
2.362,-0.38,-0.33,-0.05,0.51
2.372,-0.23,-0.04,-0.00,0.23
2.382,-0.01,0.26,0.05,0.27
2.392,0.10,0.49,0.05,0.50
2.402,0.09,0.58,-0.03,0.59
2.412,-0.02,0.47,-0.13,0.49
2.422,-0.14,0.26,-0.16,0.33
2.432,-0.20,0.01,-0.11,0.23
2.442,-0.22,-0.23,-0.02,0.32
2.452,-0.18,-0.37,0.05,0.41
2.462,-0.13,-0.41,0.12,0.44
2.472,-0.05,-0.40,0.16,0.43
2.482,0.05,-0.34,0.17,0.39
2.492,0.13,-0.24,0.17,0.32
2.502,0.17,-0.15,0.15,0.28
2.512,0.19,-0.09,0.11,0.24
2.522,0.19,-0.05,0.02,0.20
2.532,0.16,-0.00,-0.06,0.17
2.542,0.08,0.01,-0.06,0.11
2.552,0.04,0.06,-0.02,0.08
2.562,-0.03,0.14,0.02,0.14
2.572,-0.08,0.18,0.07,0.21
2.582,-0.09,0.18,0.07,0.21
2.592,-0.06,0.14,0.01,0.16
2.602,-0.03,0.07,-0.01,0.08
2.612,0.02,-0.00,0.00,0.02
2.622,0.02,-0.04,0.07,0.08
2.632,0.03,-0.05,0.08,0.10
2.642,-0.01,-0.03,0.05,0.06
2.652,-0.04,-0.03,-0.06,0.08
2.662,-0.06,-0.01,-0.24,0.25
2.673,-0.10,-0.02,-0.33,0.35
2.683,-0.12,-0.01,-0.10,0.16
2.692,-0.14,-0.01,-0.11,0.17
2.703,-0.14,0.02,-0.18,0.23
2.712,-0.15,0.03,-0.24,0.28
2.723,-0.19,-0.01,-0.22,0.29
2.733,-0.22,-0.08,-0.01,0.23
2.743,-0.15,-0.13,0.29,0.35
2.753,-0.03,-0.12,0.43,0.45
2.763,0.06,-0.09,0.27,0.29
2.773,0.06,-0.07,-0.01,0.09
2.783,0.02,-0.06,-0.14,0.15
2.793,-0.04,-0.05,-0.09,0.11
2.803,-0.05,-0.03,-0.03,0.06
2.813,-0.04,-0.03,0.04,0.06
2.823,-0.03,-0.03,0.07,0.08
2.833,-0.02,-0.01,0.07,0.08
2.843,-0.03,-0.01,0.00,0.03
2.853,-0.06,-0.01,-0.04,0.08
2.863,-0.12,-0.02,-0.02,0.13
2.873,-0.16,-0.04,0.02,0.17
2.883,-0.19,-0.06,0.04,0.20
2.893,-0.19,-0.06,0.04,0.20
2.903,-0.12,-0.05,-0.06,0.14
2.913,-0.06,-0.06,-0.03,0.09
2.923,-0.02,-0.05,0.02,0.06
2.933,0.02,-0.05,0.08,0.10
2.943,0.03,-0.03,0.18,0.19
2.953,-0.06,-0.03,0.27,0.28
2.963,-0.12,-0.02,0.12,0.17
2.973,-0.14,-0.03,-0.15,0.20
2.983,-0.12,-0.04,-0.37,0.39
2.993,-0.14,-0.01,-0.30,0.33
3.003,-0.10,0.01,-0.03,0.10
3.013,-0.01,0.01,0.17,0.17
3.023,0.03,0.03,0.24,0.25
3.033,0.04,0.01,0.24,0.24
3.043,0.04,-0.03,0.18,0.18
3.053,0.03,-0.04,0.09,0.11
3.063,0.03,-0.04,0.02,0.05
3.073,0.04,-0.02,-0.02,0.05
3.083,0.01,0.00,-0.05,0.06
3.093,-0.02,0.03,-0.07,0.08
3.103,-0.06,0.02,-0.03,0.07
3.113,-0.07,0.02,0.01,0.07
3.123,-0.08,-0.00,0.06,0.10
3.133,-0.09,-0.03,0.07,0.11
3.143,-0.11,-0.04,0.05,0.13
3.153,-0.11,-0.04,-0.02,0.12
3.163,-0.12,-0.05,-0.05,0.14
3.173,-0.14,-0.03,-0.00,0.14
3.183,-0.16,0.01,0.02,0.16
3.193,-0.16,0.03,-0.01,0.17
3.203,-0.12,0.02,-0.07,0.14
3.213,-0.11,0.02,-0.12,0.16
3.223,-0.12,0.02,-0.13,0.18
3.233,-0.18,0.03,-0.10,0.21
3.243,-0.20,0.06,0.10,0.23
3.253,-0.16,0.11,0.21,0.29
3.263,-0.09,0.12,0.08,0.17
3.273,-0.03,0.01,-0.19,0.19
3.283,0.00,-0.07,-0.41,0.42
3.293,-0.04,-0.16,-0.51,0.54
3.303,-0.09,-0.25,-0.43,0.50
3.313,-0.12,-0.18,-0.17,0.28
3.323,-0.04,-0.06,-0.01,0.08
3.333,0.01,-0.00,-0.03,0.03
3.343,-0.03,-0.01,-0.11,0.12
3.353,-0.04,-0.02,-0.14,0.15
3.363,0.03,-0.06,0.05,0.08
3.373,0.07,-0.07,0.21,0.24
3.383,0.08,-0.06,0.16,0.19
3.393,0.07,-0.07,0.03,0.11
3.403,0.02,-0.09,-0.07,0.11
3.413,-0.03,-0.08,-0.08,0.12
3.423,-0.09,-0.09,-0.03,0.13
3.433,-0.13,-0.09,-0.02,0.16
3.443,-0.14,-0.09,-0.04,0.17
3.453,-0.12,-0.10,-0.07,0.17
3.463,-0.10,-0.09,-0.07,0.15
3.473,-0.10,-0.08,-0.05,0.14
3.483,-0.06,-0.06,0.00,0.09
3.493,-0.04,-0.04,0.04,0.07
3.503,-0.01,0.00,0.06,0.06
3.513,0.00,0.02,0.00,0.03
3.523,0.03,0.01,-0.02,0.04
3.533,0.02,-0.01,0.01,0.02
3.543,0.02,-0.01,0.06,0.06
3.553,0.06,-0.00,0.13,0.14
3.563,0.04,0.05,0.18,0.19
3.573,0.05,0.07,0.07,0.11
3.583,0.06,0.06,-0.06,0.10
3.593,0.01,0.04,-0.19,0.20
3.603,-0.02,0.02,-0.23,0.23
3.613,-0.08,0.00,-0.07,0.10
3.623,-0.06,0.01,0.06,0.09
3.633,-0.02,0.01,0.04,0.05
3.643,0.05,0.02,0.02,0.06
3.653,0.05,0.05,0.01,0.07
3.663,0.04,0.06,0.09,0.11
3.673,0.05,0.05,0.19,0.20
3.683,0.02,0.04,0.20,0.20
3.693,0.03,0.02,0.12,0.12
3.703,0.00,0.01,-0.02,0.02
3.713,-0.01,-0.00,-0.04,0.04
3.723,-0.01,0.03,-0.00,0.03
3.733,-0.01,0.04,0.01,0.04
3.743,0.01,0.05,0.01,0.05
3.753,-0.01,0.01,-0.01,0.02
3.763,-0.05,-0.03,-0.03,0.06
3.774,-0.08,-0.09,-0.06,0.14
3.784,-0.08,-0.10,-0.04,0.13
3.794,-0.07,-0.08,0.00,0.11
3.804,-0.03,-0.04,0.05,0.07
3.814,-0.03,-0.01,0.06,0.07
3.824,-0.05,-0.00,0.04,0.06
3.834,-0.05,-0.01,-0.01,0.05
3.843,-0.03,-0.02,-0.06,0.07
3.854,-0.03,-0.02,-0.07,0.08
3.864,0.00,-0.03,-0.03,0.04
3.874,0.03,-0.03,0.00,0.04
3.884,0.05,-0.01,0.04,0.06
3.894,0.05,0.00,0.06,0.08
3.904,0.03,0.03,0.06,0.08
3.914,0.01,0.03,-0.00,0.03
3.924,-0.02,0.01,-0.11,0.11
3.934,-0.08,0.02,-0.10,0.13
3.944,-0.08,-0.03,0.08,0.12
3.954,-0.06,-0.02,0.11,0.13
3.964,-0.05,-0.02,-0.01,0.05
3.974,-0.00,0.00,-0.17,0.17
3.984,-0.05,-0.02,-0.31,0.31
3.994,-0.05,-0.07,-0.24,0.25
4.004,-0.08,-0.09,-0.01,0.13
4.014,-0.06,-0.07,0.22,0.24
4.024,-0.03,-0.04,0.29,0.29
4.034,0.03,0.01,0.22,0.22
4.044,0.08,0.01,0.08,0.12
4.054,0.11,-0.01,0.03,0.12
4.064,0.10,-0.04,0.06,0.12
4.074,0.06,-0.03,0.08,0.11
4.084,0.04,-0.01,0.05,0.07
4.094,0.01,-0.02,-0.02,0.03
4.104,-0.04,0.01,-0.08,0.09
4.114,-0.07,0.00,-0.09,0.11
4.124,-0.10,0.01,-0.02,0.10
4.134,-0.11,0.02,0.06,0.13
4.144,-0.06,0.02,0.08,0.10
4.154,-0.05,0.02,0.04,0.07
4.164,-0.06,0.02,0.03,0.07
4.174,-0.02,-0.00,0.04,0.04
4.184,-0.02,0.01,0.05,0.05
4.194,0.00,0.01,0.00,0.01
4.204,0.03,-0.00,-0.03,0.04
4.214,0.03,0.03,0.10,0.10
4.224,0.01,0.03,0.10,0.10
4.234,0.02,0.01,-0.10,0.10
4.244,-0.05,-0.04,-0.14,0.16
4.254,-0.08,-0.05,-0.08,0.13
4.264,-0.04,-0.04,-0.03,0.06
4.274,-0.01,-0.02,-0.01,0.03
4.284,0.02,-0.03,-0.03,0.04
4.294,0.05,-0.01,-0.04,0.06
4.304,0.06,0.00,0.05,0.08
4.314,0.07,-0.01,0.15,0.16
4.324,0.05,-0.01,0.16,0.17
4.334,0.04,-0.03,0.10,0.12
4.344,0.01,-0.03,0.07,0.08
4.354,-0.01,-0.03,0.01,0.04
4.364,-0.02,-0.03,-0.04,0.06
4.374,-0.04,-0.01,-0.08,0.09
4.384,-0.07,0.02,-0.04,0.08
4.394,-0.02,0.06,-0.03,0.07
4.404,-0.02,0.02,-0.01,0.03
4.414,-0.05,0.02,0.00,0.05
4.424,-0.05,-0.03,0.03,0.07
4.434,-0.05,-0.03,0.03,0.07
4.444,-0.03,-0.01,0.02,0.04
4.454,-0.01,0.01,0.01,0.02
4.464,0.00,0.01,0.01,0.02
4.474,0.02,0.01,0.02,0.03
4.484,-0.02,-0.00,0.02,0.02
4.494,-0.02,-0.02,0.02,0.03
4.504,0.02,-0.01,0.03,0.03
4.514,0.02,-0.00,0.04,0.05
4.524,0.06,-0.02,0.03,0.07
4.534,0.11,0.02,0.04,0.11
4.544,0.13,0.02,0.12,0.18
4.554,0.14,0.01,0.20,0.24
4.564,0.13,-0.02,0.18,0.23
4.574,0.08,-0.04,0.12,0.15
4.584,-0.01,-0.07,0.04,0.09
4.594,-0.06,-0.10,-0.02,0.12
4.604,-0.10,-0.07,-0.05,0.13
4.614,-0.10,-0.05,-0.07,0.13
4.624,-0.10,-0.01,-0.05,0.11
4.634,-0.08,-0.00,-0.04,0.09
4.644,-0.07,-0.00,-0.00,0.07
4.654,-0.06,0.00,-0.02,0.06
4.664,-0.04,0.01,-0.05,0.07
4.674,-0.05,-0.00,-0.11,0.12
4.684,-0.01,-0.02,-0.10,0.10
4.694,0.01,-0.02,-0.04,0.05
4.704,0.04,0.01,0.01,0.04
4.714,0.04,0.01,0.06,0.07
4.724,0.04,0.03,0.07,0.08
4.734,0.05,0.04,-0.02,0.07
4.744,0.04,0.04,-0.15,0.16
4.754,-0.02,0.02,-0.10,0.11
4.764,-0.05,0.01,0.13,0.14
4.774,-0.07,0.03,0.00,0.07
4.784,-0.07,0.02,-0.25,0.26
4.794,-0.10,0.02,-0.37,0.39
4.804,-0.11,-0.01,-0.31,0.33
4.814,-0.08,-0.05,-0.01,0.09
4.824,0.02,-0.06,0.31,0.32
4.834,0.10,-0.01,0.40,0.42
4.844,0.12,0.03,0.27,0.30
4.855,0.11,0.01,0.07,0.13
4.865,0.05,0.02,-0.02,0.06
4.875,0.00,0.02,-0.03,0.03
4.885,-0.02,0.01,-0.02,0.02
4.895,-0.03,0.00,-0.05,0.06
4.905,-0.04,-0.01,-0.07,0.08
4.915,-0.07,-0.04,-0.07,0.11
4.925,-0.09,-0.03,-0.01,0.09
4.935,-0.08,-0.02,0.02,0.09
4.945,-0.07,-0.02,-0.01,0.07
4.955,-0.07,-0.01,-0.03,0.08
4.965,-0.05,0.01,-0.03,0.06
4.975,-0.05,0.00,-0.02,0.06
4.985,-0.03,-0.00,0.00,0.03
4.995,-0.02,0.01,-0.02,0.03
5.005,-0.01,-0.00,0.02,0.02
5.015,0.00,0.01,0.02,0.02
5.025,0.03,0.03,0.07,0.08
5.035,-0.01,0.06,0.24,0.25
5.045,-0.01,0.02,0.12,0.13
5.055,-0.00,-0.01,-0.14,0.14
5.065,-0.03,-0.06,-0.27,0.28
5.075,-0.06,-0.09,-0.19,0.22
5.085,-0.03,-0.07,-0.02,0.08
5.095,0.05,-0.03,0.09,0.11
5.105,0.05,0.01,0.06,0.08
5.115,0.05,0.01,0.03,0.06
5.125,0.02,0.01,0.08,0.08
5.135,-0.01,0.02,0.12,0.12
5.145,-0.01,0.01,0.13,0.13
5.155,-0.01,0.01,0.10,0.10
5.165,-0.02,0.00,0.04,0.05
5.175,-0.02,0.00,-0.03,0.03
5.185,-0.03,-0.01,-0.06,0.07
5.195,-0.06,-0.01,-0.09,0.11
5.205,-0.04,-0.00,-0.09,0.10
5.215,-0.05,-0.01,-0.01,0.05
5.225,-0.04,-0.00,0.05,0.06
5.235,-0.04,-0.00,0.06,0.07
5.245,-0.04,-0.01,-0.03,0.05
5.255,-0.05,-0.01,-0.11,0.12
5.265,-0.04,-0.00,-0.03,0.05
5.275,-0.03,0.01,0.07,0.07
5.285,-0.04,0.00,0.05,0.06
5.295,-0.01,0.02,0.00,0.02
5.305,-0.02,0.02,0.02,0.03
5.315,-0.02,0.00,0.05,0.05
5.325,-0.01,0.01,0.03,0.03
5.335,-0.02,0.02,0.02,0.03
5.345,0.01,0.03,0.01,0.03
5.355,-0.01,0.01,-0.04,0.04
5.365,-0.02,-0.00,-0.04,0.04
5.375,-0.02,-0.01,0.01,0.02
5.385,0.00,-0.01,0.06,0.06
5.395,-0.02,0.03,0.11,0.12
5.405,-0.05,0.02,0.10,0.11
5.415,-0.04,-0.02,-0.04,0.06
5.425,-0.04,-0.05,-0.22,0.23
5.435,-0.08,-0.05,-0.29,0.31
5.445,-0.11,-0.08,-0.17,0.22
5.455,-0.14,-0.09,-0.16,0.23
5.465,-0.13,-0.00,-0.08,0.15
5.475,-0.05,0.05,-0.01,0.07
5.485,-0.06,0.00,-0.05,0.08
5.495,-0.07,-0.06,-0.05,0.11
5.505,-0.01,-0.07,0.04,0.08
5.515,0.07,-0.06,0.21,0.23
5.525,0.10,0.01,0.30,0.31
5.535,0.12,0.04,0.19,0.23
5.545,0.09,0.04,0.08,0.13
5.555,0.04,0.02,0.02,0.04
5.565,-0.02,-0.00,0.00,0.02
5.575,-0.05,-0.03,0.00,0.06
5.585,-0.05,-0.01,-0.05,0.08
5.595,-0.03,-0.00,-0.10,0.10
5.605,-0.03,0.02,-0.08,0.09
5.615,0.00,0.05,-0.02,0.06
5.625,0.00,0.06,0.00,0.06
5.635,-0.02,0.06,0.01,0.07
5.645,-0.05,0.05,0.02,0.07
5.655,-0.07,0.02,-0.01,0.08
5.665,-0.09,-0.03,-0.03,0.10
5.675,-0.10,-0.07,-0.04,0.13
5.685,-0.08,-0.06,-0.04,0.10
5.695,-0.08,-0.02,-0.05,0.09
5.705,-0.04,0.03,0.02,0.05
5.715,-0.01,0.08,0.15,0.17
5.725,-0.01,0.07,0.10,0.13
5.735,0.00,0.02,-0.09,0.09
5.745,-0.00,-0.03,-0.27,0.27
5.755,-0.02,-0.07,-0.27,0.28
5.765,-0.03,-0.08,-0.06,0.10
5.775,-0.00,-0.05,0.10,0.11
5.785,0.03,-0.01,0.06,0.07
5.795,0.06,-0.03,-0.03,0.07
5.805,0.05,-0.02,-0.03,0.06
5.815,0.05,-0.04,0.03,0.07
5.825,0.05,-0.04,0.07,0.10
5.835,0.04,-0.04,0.12,0.14
5.845,0.03,-0.03,0.07,0.08
5.855,-0.01,-0.00,-0.01,0.01
5.865,-0.03,0.00,-0.05,0.06
5.875,-0.05,-0.00,-0.09,0.11
5.886,-0.07,0.01,-0.07,0.10
5.895,-0.06,0.00,-0.04,0.07
5.905,-0.03,0.01,-0.03,0.04
5.916,-0.04,-0.00,0.01,0.04
5.926,-0.06,-0.03,0.01,0.06
5.936,-0.04,-0.03,0.02,0.06
5.945,-0.01,-0.02,0.03,0.04
5.956,0.00,0.01,0.04,0.04
5.966,-0.00,0.03,0.02,0.04
5.975,0.01,0.03,0.02,0.03
5.986,-0.00,0.02,-0.02,0.03
5.996,-0.02,0.00,-0.03,0.03
6.006,-0.02,-0.02,-0.01,0.03
6.016,-0.02,-0.03,0.01,0.04
6.026,-0.02,-0.02,0.02,0.03
6.036,0.00,-0.01,0.02,0.02
6.046,0.02,0.02,-0.01,0.03
6.056,0.05,0.03,-0.04,0.07
6.066,0.06,0.04,-0.02,0.07
6.076,0.02,0.02,0.02,0.04
6.086,0.03,0.02,0.06,0.07
6.096,0.03,0.03,0.06,0.07
6.106,0.00,0.02,0.05,0.06
6.116,-0.00,0.00,-0.02,0.02
6.126,-0.02,-0.01,-0.12,0.12
6.136,-0.07,-0.03,-0.11,0.14
6.146,-0.07,-0.06,0.06,0.11
6.156,-0.05,-0.04,0.05,0.08
6.166,-0.02,0.02,-0.00,0.03
6.176,-0.01,0.04,-0.11,0.12
6.186,-0.04,0.01,-0.24,0.24
6.196,-0.08,-0.06,-0.19,0.21
6.206,-0.06,-0.09,-0.01,0.11
6.216,0.02,-0.07,0.20,0.21
6.226,0.07,-0.02,0.27,0.28
6.236,0.09,0.02,0.19,0.21
6.246,0.10,0.01,0.08,0.13
6.256,0.08,-0.00,0.03,0.08
6.266,0.05,-0.04,0.05,0.08
6.276,0.04,-0.03,0.05,0.07
6.286,0.02,-0.02,-0.00,0.03
6.296,0.02,0.00,-0.05,0.05
6.306,0.02,0.03,-0.08,0.08
6.316,0.00,0.07,-0.06,0.09
6.326,-0.04,0.06,0.00,0.07
6.336,-0.04,0.05,0.05,0.08
6.346,-0.05,0.04,0.05,0.08
6.356,-0.07,0.03,0.03,0.08
6.366,-0.06,0.00,0.01,0.06
6.376,-0.04,-0.02,0.05,0.07
6.386,-0.02,-0.01,0.07,0.08
6.396,0.02,0.01,0.03,0.04
6.406,0.03,0.02,-0.02,0.04
6.416,0.02,0.01,0.09,0.09
6.426,0.02,0.00,0.13,0.13
6.436,0.04,0.01,-0.05,0.06
6.446,-0.01,-0.02,-0.18,0.19
6.456,-0.07,-0.02,-0.13,0.15
6.466,-0.06,-0.02,-0.04,0.07
6.476,0.02,-0.01,0.04,0.04
6.486,0.01,0.01,0.03,0.03
6.496,0.03,-0.01,-0.02,0.04
6.506,0.05,-0.02,0.01,0.05
6.516,0.06,-0.02,0.11,0.13
6.526,0.05,-0.00,0.15,0.16
6.536,0.06,-0.02,0.12,0.13
6.546,0.05,-0.03,0.06,0.09
6.556,0.02,-0.03,0.01,0.04
6.566,-0.00,-0.00,-0.05,0.05
6.576,-0.00,0.01,-0.09,0.09
6.586,-0.01,0.02,-0.08,0.09
6.596,-0.01,0.04,-0.02,0.04
6.606,0.00,0.02,0.02,0.03
6.616,-0.00,-0.01,0.03,0.03
6.626,-0.02,-0.03,0.05,0.06
6.636,-0.02,-0.03,0.04,0.05
6.646,-0.00,-0.03,0.01,0.03
6.656,-0.00,0.01,-0.01,0.01
6.666,-0.02,0.03,-0.01,0.04
6.676,-0.03,0.04,-0.02,0.05
6.686,-0.05,0.03,-0.01,0.06
6.696,-0.04,0.02,-0.02,0.04
6.706,-0.03,-0.00,-0.02,0.04
6.716,-0.04,-0.02,-0.01,0.04
6.726,-0.03,-0.01,-0.04,0.05
6.736,-0.01,-0.00,-0.04,0.04
6.746,0.02,0.00,-0.02,0.03
6.756,0.03,0.01,-0.00,0.03
6.766,0.03,0.03,-0.01,0.04
6.776,0.02,0.02,0.00,0.02
6.786,0.02,0.01,0.00,0.02
6.796,0.01,-0.01,-0.00,0.01
6.806,-0.00,-0.01,0.02,0.03
6.816,-0.01,-0.03,0.05,0.06
6.826,-0.03,-0.02,0.02,0.04
6.836,-0.00,-0.02,-0.02,0.03
6.846,0.00,0.01,-0.05,0.05
6.856,-0.00,0.00,-0.06,0.06
6.866,0.01,0.00,-0.01,0.02
6.876,-0.00,0.00,0.04,0.04
6.886,0.02,0.02,0.06,0.06
6.896,0.02,0.04,0.06,0.07
6.906,-0.01,0.04,0.00,0.05
6.916,-0.01,0.01,-0.12,0.13
6.926,-0.04,0.00,-0.15,0.15
6.936,-0.06,-0.03,-0.01,0.07
6.946,-0.02,-0.07,0.20,0.21
6.956,0.01,-0.02,0.07,0.07
6.967,0.00,0.02,-0.15,0.15
6.976,-0.04,0.01,-0.32,0.32
6.986,-0.07,-0.04,-0.30,0.31
6.997,-0.07,-0.07,-0.05,0.11
7.007,-0.01,-0.06,0.21,0.22
7.017,0.04,-0.02,0.31,0.31
7.027,0.05,0.01,0.22,0.23
7.037,0.08,0.02,0.04,0.09
7.047,0.11,0.03,-0.01,0.11
7.057,0.07,0.01,0.02,0.07
7.067,0.03,0.02,0.05,0.06
7.077,0.02,0.02,0.00,0.03
7.087,0.00,0.01,-0.06,0.06
7.097,-0.05,0.03,-0.07,0.09
7.107,-0.06,0.04,-0.03,0.08
7.117,-0.05,0.05,0.01,0.07
7.127,-0.01,0.04,0.05,0.07
7.137,-0.01,0.01,0.05,0.06
7.147,-0.01,-0.01,0.03,0.04
7.157,-0.03,-0.02,0.00,0.04
7.167,-0.06,-0.01,0.01,0.06
7.177,-0.03,0.00,0.06,0.07
7.187,-0.02,0.01,0.07,0.08
7.197,0.00,0.02,0.00,0.02
7.207,0.03,0.04,-0.00,0.05
7.217,0.05,0.01,0.12,0.13
7.227,0.04,0.02,0.07,0.08
7.237,0.04,-0.01,-0.13,0.13
7.247,-0.04,-0.03,-0.18,0.19
7.257,-0.05,-0.03,-0.11,0.13
7.267,-0.02,-0.02,-0.01,0.03
7.277,0.01,-0.01,0.05,0.05
7.287,0.06,-0.01,0.06,0.08
7.297,0.07,-0.01,0.05,0.09
7.307,0.11,-0.00,0.10,0.15
7.317,0.10,-0.01,0.18,0.20
7.327,0.09,-0.02,0.16,0.18
7.337,0.05,-0.02,0.12,0.13
7.347,0.03,-0.02,0.06,0.07
7.357,0.01,-0.03,0.01,0.04
7.367,-0.01,-0.02,-0.03,0.03
7.377,-0.01,-0.01,-0.06,0.06
7.387,-0.04,0.03,-0.07,0.08
7.397,-0.04,0.04,-0.06,0.08
7.407,0.01,0.02,-0.03,0.04
7.417,0.01,0.02,-0.00,0.03
7.427,-0.03,0.02,0.04,0.06
7.437,-0.03,0.01,0.04,0.05
7.447,-0.04,0.01,0.01,0.04
7.457,-0.04,0.03,-0.01,0.04
7.467,-0.02,0.02,0.02,0.03
7.477,-0.03,0.03,0.02,0.04
7.487,-0.02,0.02,-0.02,0.04
7.497,0.01,0.01,-0.02,0.02
7.507,-0.00,0.02,-0.01,0.02
7.517,0.02,0.01,-0.02,0.03
7.527,0.03,-0.01,-0.02,0.04
7.537,0.05,-0.02,-0.02,0.05
7.547,0.02,-0.02,0.01,0.04
7.557,0.02,-0.01,0.02,0.03
7.567,0.04,-0.01,-0.02,0.05
7.577,0.01,-0.01,-0.09,0.09
7.587,0.01,-0.01,-0.15,0.15
7.597,0.01,0.00,-0.16,0.16
7.607,-0.01,0.02,-0.13,0.13
7.617,0.00,0.01,-0.06,0.06
7.627,0.02,0.01,0.04,0.05
7.637,-0.01,-0.02,0.16,0.16
7.647,-0.03,-0.02,0.23,0.23
7.657,-0.01,-0.04,0.22,0.23
7.667,0.03,-0.05,0.17,0.18
7.677,0.03,-0.04,0.11,0.12
7.687,0.04,-0.03,0.04,0.07
7.697,0.05,0.01,-0.04,0.07
7.707,0.00,0.02,-0.08,0.08
7.717,-0.02,0.01,-0.21,0.21
7.727,-0.08,-0.00,-0.23,0.24
7.737,-0.10,-0.02,0.04,0.11
7.747,-0.08,-0.01,-0.02,0.08
7.757,-0.07,0.03,-0.15,0.17
7.767,-0.04,0.05,-0.14,0.16
7.777,-0.06,-0.00,-0.10,0.12
7.787,-0.07,-0.05,0.07,0.11
7.797,0.02,-0.06,0.28,0.29
7.807,0.11,-0.03,0.32,0.34
7.817,0.11,0.01,0.20,0.23
7.827,0.07,0.02,0.06,0.10
7.837,0.03,-0.00,-0.02,0.03
7.847,0.00,-0.01,-0.03,0.03
7.857,-0.03,-0.01,-0.03,0.05
7.867,-0.07,-0.01,-0.04,0.09
7.877,-0.07,0.01,-0.09,0.12
7.887,-0.07,0.01,-0.08,0.10
7.897,-0.06,0.01,-0.02,0.07
7.907,-0.04,0.04,0.00,0.06
7.917,-0.05,0.04,0.00,0.07
7.927,-0.04,0.05,-0.04,0.07
7.937,-0.03,0.05,-0.04,0.07
7.947,0.01,0.03,-0.03,0.04
7.957,-0.01,0.00,0.04,0.04
7.967,0.01,0.00,0.07,0.07
7.977,0.01,0.00,0.06,0.06
7.987,0.02,-0.01,-0.01,0.02
7.997,0.01,0.02,0.03,0.04
8.007,-0.01,0.06,0.09,0.10
8.017,0.01,0.03,-0.01,0.03
8.027,-0.02,-0.01,-0.10,0.10
8.037,-0.06,-0.04,-0.20,0.22
8.048,-0.07,-0.08,-0.25,0.27
8.058,-0.08,-0.09,-0.08,0.14
8.068,-0.04,-0.10,0.04,0.11
8.078,0.02,-0.09,0.06,0.11
8.087,0.02,-0.06,0.05,0.08
8.098,0.02,-0.06,0.05,0.08
8.108,0.04,-0.04,0.07,0.08
8.118,0.02,-0.02,0.07,0.08
8.128,-0.01,-0.01,0.02,0.02
8.138,-0.04,0.02,-0.04,0.06
8.148,-0.08,0.03,-0.10,0.13
8.158,-0.07,0.04,-0.10,0.13
8.168,-0.07,0.05,-0.07,0.12
8.178,-0.03,0.04,-0.07,0.08
8.188,-0.02,0.04,-0.02,0.05
8.198,-0.01,0.04,0.05,0.07
8.208,-0.00,0.04,0.07,0.08
8.218,-0.02,0.05,0.00,0.05
8.228,-0.04,0.05,-0.04,0.08
8.238,-0.03,0.03,0.04,0.05
8.248,-0.01,0.04,0.07,0.08
8.258,0.01,0.04,0.03,0.05
8.268,0.04,0.04,-0.05,0.08
8.278,0.03,0.00,-0.06,0.07
8.288,0.02,-0.03,-0.03,0.05
8.298,0.01,-0.05,-0.01,0.05
8.308,-0.01,-0.05,-0.03,0.06
8.318,-0.04,-0.04,-0.01,0.05
8.328,-0.05,-0.03,0.01,0.06
8.338,-0.02,-0.03,0.01,0.04
8.348,-0.04,-0.04,-0.00,0.06
8.358,-0.02,-0.02,-0.01,0.03
8.368,-0.01,0.00,-0.03,0.03
8.378,0.01,-0.01,-0.03,0.03
8.388,0.03,-0.03,0.02,0.05
8.398,0.01,-0.02,0.12,0.12
8.408,0.04,-0.00,0.13,0.14
8.418,0.07,0.02,0.06,0.09
8.428,0.05,0.02,-0.07,0.09
8.438,0.05,0.01,-0.16,0.17
8.448,-0.01,0.00,-0.23,0.23
8.458,-0.05,-0.00,-0.09,0.11
8.468,-0.07,-0.03,0.07,0.11
8.478,-0.05,-0.00,0.01,0.05
8.488,-0.05,0.07,0.00,0.09
8.498,-0.03,0.06,-0.10,0.12
8.508,-0.05,0.00,-0.19,0.20
8.518,-0.05,-0.05,-0.08,0.11
8.528,0.02,-0.07,0.15,0.17
8.538,0.09,-0.04,0.28,0.30
8.548,0.13,0.00,0.25,0.28
8.558,0.13,0.01,0.11,0.17
8.568,0.09,0.01,0.02,0.09
8.578,0.03,0.01,-0.01,0.03
8.588,-0.03,-0.01,-0.01,0.03
8.598,-0.04,-0.03,-0.04,0.06
8.608,-0.05,-0.02,-0.10,0.11
8.618,-0.07,-0.01,-0.12,0.14
8.628,-0.07,-0.01,-0.12,0.13
8.638,-0.06,0.01,-0.05,0.08
8.648,-0.05,0.01,0.02,0.05
8.658,-0.04,0.02,0.04,0.06
8.668,-0.04,0.01,0.03,0.05
8.678,-0.04,-0.01,0.01,0.04
8.688,-0.05,-0.01,0.00,0.05
8.698,-0.04,-0.01,-0.01,0.04
8.708,-0.04,0.01,0.02,0.04
8.718,-0.00,0.00,0.01,0.01
8.728,0.01,0.00,0.03,0.03
8.738,0.02,0.04,0.14,0.15
8.748,0.03,0.03,0.08,0.09
8.758,0.05,0.02,-0.12,0.13
8.768,0.00,-0.00,-0.27,0.27
8.778,-0.02,-0.01,-0.23,0.23
8.788,-0.03,0.00,-0.04,0.05
8.798,-0.01,0.02,0.08,0.09
8.808,0.02,0.03,0.05,0.06
8.818,0.04,0.03,0.00,0.05
8.828,0.04,0.02,0.01,0.04
8.838,0.03,0.01,0.10,0.11
8.848,0.06,-0.02,0.13,0.14
8.858,0.05,-0.03,0.09,0.11
8.868,0.02,-0.04,0.02,0.05
8.878,-0.03,-0.03,-0.05,0.06
8.888,-0.04,-0.02,-0.10,0.12
8.898,-0.09,-0.01,-0.07,0.11
8.908,-0.06,0.02,-0.02,0.07
8.918,-0.00,0.01,0.01,0.01
8.928,0.03,-0.00,0.01,0.03
8.938,0.01,-0.01,0.00,0.01
8.948,-0.02,-0.02,0.02,0.03
8.958,-0.02,-0.02,-0.00,0.03
8.968,-0.01,0.00,-0.00,0.01
8.978,0.01,0.03,0.02,0.03
8.988,0.00,0.03,0.03,0.04
8.998,0.01,0.01,0.02,0.02
9.008,0.01,0.01,0.03,0.04
9.018,0.01,-0.00,0.01,0.01
9.028,-0.00,-0.00,0.01,0.01
9.038,-0.01,0.00,0.01,0.02
9.048,0.02,0.01,-0.01,0.02
9.058,0.01,0.01,-0.00,0.02
9.068,0.01,0.01,0.00,0.01
9.078,-0.00,-0.00,0.03,0.03
9.088,0.01,-0.03,0.05,0.06
9.098,0.00,-0.01,0.01,0.02
9.109,0.00,-0.01,-0.01,0.01
9.118,0.02,-0.01,-0.01,0.02
9.128,0.03,-0.00,-0.03,0.04
9.139,0.03,0.00,0.03,0.04
9.149,0.02,-0.02,0.07,0.08
9.159,0.03,-0.00,0.11,0.11
9.169,0.01,0.02,0.07,0.07
9.178,-0.00,0.02,-0.02,0.03
9.189,-0.01,0.01,-0.14,0.14
9.199,-0.02,0.02,-0.18,0.18
9.209,-0.04,-0.01,-0.06,0.08
9.219,-0.02,-0.03,0.11,0.11
9.229,0.01,-0.00,0.01,0.02
9.239,0.02,0.03,-0.07,0.08
9.249,-0.01,0.02,-0.16,0.17
9.259,-0.05,-0.02,-0.23,0.24
9.269,-0.07,-0.09,-0.11,0.15
9.279,-0.04,-0.08,0.10,0.13
9.289,0.01,-0.08,0.24,0.25
9.299,0.06,-0.03,0.21,0.22
9.309,0.07,-0.01,0.10,0.13
9.319,0.11,0.02,0.03,0.11
9.329,0.08,0.01,0.04,0.09
9.339,0.05,0.00,0.06,0.08
9.349,0.04,0.00,0.04,0.06
9.359,0.03,-0.00,-0.02,0.03
9.369,-0.01,-0.00,-0.07,0.07
9.379,-0.05,0.04,-0.05,0.08
9.389,-0.07,0.06,0.02,0.09
9.399,-0.05,0.03,0.08,0.10
9.409,-0.04,-0.01,0.15,0.15
9.419,0.02,-0.04,0.14,0.15
9.429,0.05,-0.01,0.09,0.10
9.439,0.04,0.03,0.00,0.05
9.449,0.00,0.07,-0.01,0.07
9.459,-0.01,0.09,-0.04,0.09
9.469,-0.04,0.06,-0.07,0.10
9.479,-0.04,0.02,-0.12,0.13
9.489,-0.02,-0.01,0.01,0.03
9.499,0.01,-0.01,0.09,0.09
9.509,0.05,-0.03,-0.05,0.08
9.519,0.03,-0.02,-0.15,0.16
9.529,-0.02,-0.02,-0.09,0.09
9.539,-0.02,-0.01,0.02,0.03
9.549,0.01,-0.01,0.07,0.07
9.559,0.03,0.00,0.05,0.05
9.569,0.04,-0.01,-0.02,0.04
9.579,0.05,-0.01,0.00,0.05
9.589,0.05,-0.01,0.10,0.11
9.599,0.06,-0.01,0.16,0.17
9.609,0.06,-0.02,0.14,0.15
9.619,0.04,-0.02,0.11,0.12
9.629,0.04,-0.03,0.02,0.05
9.639,-0.00,-0.00,-0.08,0.08
9.649,-0.04,0.02,-0.11,0.12
9.659,-0.04,0.03,-0.10,0.11
9.669,-0.02,0.04,-0.02,0.05
9.679,-0.02,0.03,0.03,0.05
9.689,-0.01,0.01,0.06,0.06
9.699,0.02,-0.02,0.03,0.04
9.709,0.02,-0.02,0.01,0.03
9.719,0.02,-0.01,0.01,0.02
9.729,-0.01,0.01,0.01,0.02
9.739,-0.01,0.05,0.02,0.05
9.749,0.01,0.06,0.04,0.07
9.759,-0.00,0.06,0.05,0.08
9.769,-0.00,0.03,0.07,0.08
9.779,0.00,-0.02,0.03,0.03
9.789,0.02,-0.02,-0.01,0.03
9.799,0.00,-0.02,-0.01,0.03
9.809,0.01,-0.02,-0.01,0.03
9.819,0.02,0.01,0.00,0.02
9.829,0.03,0.03,0.02,0.05
9.839,0.01,0.04,0.01,0.04
9.849,0.04,0.01,-0.02,0.05
9.859,-0.00,-0.00,-0.02,0.02
9.869,-0.00,0.00,0.04,0.04
9.879,-0.00,-0.02,0.05,0.05
9.889,0.01,-0.02,0.05,0.06
9.899,0.02,-0.02,0.01,0.02
9.909,0.00,-0.00,-0.08,0.08
9.919,-0.01,0.01,-0.09,0.09
9.929,-0.04,0.02,-0.03,0.05
9.939,-0.04,0.02,0.03,0.05
9.949,-0.02,0.00,0.10,0.11
9.959,0.02,0.00,0.11,0.11
9.969,0.03,-0.00,0.04,0.05
9.979,0.00,-0.01,-0.03,0.03
9.989,-0.02,-0.02,-0.12,0.13
9.999,-0.03,-0.03,-0.24,0.24
10.009,-0.05,-0.04,-0.07,0.10
10.019,-0.07,-0.04,0.11,0.14
10.029,-0.05,0.00,-0.05,0.07
10.039,-0.04,0.03,-0.17,0.17
10.049,-0.04,0.01,-0.23,0.23
10.059,-0.04,-0.04,-0.14,0.15
10.069,0.00,-0.05,0.13,0.14
10.079,0.11,-0.03,0.33,0.35
10.089,0.15,-0.00,0.30,0.33
10.099,0.12,0.01,0.11,0.16
10.109,0.07,0.00,-0.01,0.07
10.119,0.04,-0.01,-0.03,0.05
10.129,-0.01,-0.01,-0.03,0.03
10.139,-0.03,-0.01,-0.01,0.03
10.149,-0.04,0.01,-0.04,0.06
10.159,-0.06,0.01,-0.08,0.10
10.169,-0.02,0.03,-0.06,0.07
10.179,-0.03,0.05,0.00,0.05
10.189,-0.04,0.03,-0.00,0.05
10.200,-0.05,0.01,-0.01,0.05
10.210,-0.07,0.00,0.02,0.07
10.220,-0.08,0.01,0.02,0.08
10.230,-0.05,0.02,0.01,0.06
10.240,-0.08,0.00,0.00,0.08
10.250,-0.08,-0.01,0.01,0.08
10.260,-0.03,-0.01,0.01,0.03
10.270,-0.01,0.02,-0.03,0.04
10.280,-0.03,0.03,0.05,0.07
10.290,-0.04,0.05,0.08,0.11
10.300,-0.01,0.03,-0.03,0.05
10.310,-0.01,-0.01,-0.14,0.14
10.320,-0.00,-0.02,-0.23,0.23
10.330,-0.01,-0.02,-0.19,0.19
10.340,-0.02,-0.02,0.00,0.03
10.350,-0.00,-0.02,0.05,0.05
10.360,0.01,-0.02,0.02,0.03
10.370,0.02,-0.03,-0.02,0.04
10.380,-0.00,-0.05,-0.02,0.05
10.390,-0.00,-0.06,0.05,0.07
10.400,0.03,-0.03,0.08,0.09
10.410,0.01,-0.02,0.06,0.07
10.420,-0.03,0.00,0.00,0.03
10.430,-0.05,0.02,-0.06,0.08
10.440,-0.06,0.02,-0.06,0.09
10.450,-0.06,0.01,-0.05,0.08
10.460,-0.03,0.01,-0.06,0.07
10.470,-0.02,-0.00,-0.03,0.03
10.480,-0.04,0.03,0.03,0.06
10.490,-0.05,0.03,0.04,0.07
10.500,-0.08,-0.00,-0.01,0.08
10.510,-0.07,-0.01,-0.03,0.08
10.520,-0.05,0.02,0.00,0.05
10.530,-0.02,0.01,0.06,0.06
10.540,-0.01,0.02,0.06,0.06
10.550,0.03,0.02,0.02,0.05
10.560,0.03,0.02,0.01,0.04
10.570,0.02,-0.02,-0.01,0.03
10.580,0.01,0.00,-0.02,0.02
10.590,-0.01,-0.01,-0.03,0.03
10.600,-0.02,-0.00,-0.02,0.02
10.610,-0.00,-0.01,-0.02,0.02
10.620,-0.00,-0.00,-0.02,0.02
10.630,0.00,-0.01,-0.00,0.01
10.640,0.01,-0.03,0.01,0.03
10.650,0.01,-0.03,0.00,0.03
10.660,-0.01,-0.01,-0.02,0.03
10.670,-0.04,-0.01,-0.07,0.08
10.680,-0.04,0.01,-0.06,0.07
10.690,-0.04,-0.01,-0.03,0.05
10.700,-0.03,-0.01,0.05,0.06
10.710,-0.01,-0.00,0.09,0.09
10.720,0.01,0.02,0.06,0.07
10.730,0.00,0.02,0.00,0.02
10.740,0.02,0.01,-0.07,0.08
10.750,-0.01,-0.00,-0.17,0.17
10.760,-0.05,-0.02,-0.13,0.14
10.770,-0.06,-0.06,0.10,0.13
10.780,-0.05,-0.06,0.06,0.10
10.790,0.01,0.02,0.00,0.02
10.800,0.01,0.05,-0.10,0.11
10.810,-0.01,0.02,-0.23,0.23
10.820,-0.05,-0.02,-0.18,0.19
10.830,-0.02,-0.04,0.03,0.05
10.840,0.04,-0.02,0.19,0.19
10.850,0.09,-0.00,0.20,0.22
10.860,0.10,0.01,0.15,0.18
10.870,0.08,0.02,0.08,0.11
10.880,0.07,0.04,0.01,0.08
10.890,0.04,0.02,-0.01,0.04
10.900,0.03,0.00,0.02,0.04
10.910,0.04,0.02,-0.00,0.04
10.920,0.01,0.01,-0.04,0.04
10.930,-0.02,0.02,-0.07,0.08
10.940,-0.03,0.03,-0.04,0.06
10.950,-0.04,0.04,-0.00,0.06
10.960,-0.02,0.02,0.03,0.05
10.970,-0.02,-0.00,0.03,0.04
10.980,-0.03,-0.02,0.04,0.06
10.990,-0.05,-0.03,0.04,0.07
11.000,-0.04,-0.03,0.02,0.05
11.010,-0.06,-0.03,0.01,0.07
11.020,-0.07,-0.00,0.01,0.07
11.030,-0.01,0.01,-0.06,0.06
11.040,0.02,0.02,0.03,0.04
11.050,0.04,0.05,0.14,0.15
11.060,0.06,0.04,0.03,0.08
11.070,0.09,0.02,-0.14,0.17
11.080,0.02,0.01,-0.18,0.18
11.090,-0.03,0.00,-0.07,0.07
11.100,-0.02,0.02,0.06,0.06
11.110,0.01,0.02,0.10,0.10
11.120,0.03,0.03,0.03,0.05
11.130,0.02,0.01,-0.03,0.04
11.140,0.03,-0.01,0.04,0.05
11.150,0.02,-0.00,0.10,0.10
11.160,0.04,-0.02,0.11,0.11
11.170,0.01,-0.06,0.07,0.09
11.180,-0.01,-0.07,0.02,0.07
11.190,-0.01,-0.05,-0.04,0.06
11.200,-0.03,-0.04,-0.04,0.06
11.210,-0.03,-0.03,-0.05,0.06
11.220,-0.01,-0.00,-0.04,0.04
11.230,0.02,0.00,-0.03,0.04
11.240,-0.01,-0.01,-0.02,0.03
11.251,-0.03,-0.02,-0.00,0.03
11.260,-0.02,-0.02,0.01,0.03
11.271,-0.01,-0.01,0.04,0.04
11.281,0.00,0.00,0.04,0.04
11.291,0.02,0.01,0.03,0.04
11.300,0.03,0.02,0.01,0.03
11.311,0.01,0.02,0.01,0.02
11.321,0.02,0.02,0.00,0.02
11.330,0.02,0.04,0.01,0.04
11.341,0.00,0.03,-0.01,0.03
11.351,0.01,0.03,-0.01,0.03
11.361,0.01,0.04,-0.01,0.05
11.371,0.02,0.03,-0.01,0.03
11.381,0.04,0.03,0.02,0.05
11.391,0.03,0.02,0.02,0.04
11.401,0.02,0.00,0.00,0.02
11.411,0.01,-0.01,-0.01,0.01
11.421,-0.00,-0.02,0.01,0.02
11.431,-0.01,-0.03,0.01,0.03
11.441,-0.00,-0.04,0.02,0.04
11.451,0.00,-0.03,0.02,0.04
11.461,0.02,-0.03,0.01,0.04
11.471,-0.02,-0.03,0.03,0.05
11.481,-0.02,-0.01,0.03,0.03
11.491,0.00,-0.01,-0.01,0.02
11.501,0.02,0.01,-0.07,0.07
11.511,0.00,-0.00,-0.06,0.06
11.521,-0.01,0.01,0.02,0.02
11.531,0.02,-0.01,0.09,0.09
11.541,0.03,0.00,0.10,0.10
11.551,0.04,0.02,0.08,0.09
11.561,0.02,0.02,-0.02,0.03
11.571,0.00,0.01,-0.14,0.14
11.581,-0.03,-0.00,-0.17,0.17
11.591,-0.03,-0.03,-0.01,0.05
11.601,-0.00,-0.06,0.19,0.20
11.611,0.04,0.02,0.01,0.04
11.621,0.02,0.06,-0.18,0.19
11.631,-0.04,0.01,-0.28,0.29
11.641,-0.04,-0.03,-0.20,0.21
11.651,-0.01,-0.06,0.06,0.08
11.661,0.05,-0.05,0.27,0.28
11.671,0.06,-0.03,0.29,0.30
11.681,0.09,-0.01,0.17,0.19
11.691,0.07,-0.01,0.05,0.09
11.701,0.07,-0.02,0.01,0.08
11.711,0.07,-0.03,0.05,0.09
11.721,0.04,0.02,0.08,0.09
11.731,0.02,0.01,0.01,0.03
11.741,-0.02,0.02,-0.07,0.08
11.751,-0.03,0.04,-0.06,0.08
11.761,-0.03,0.03,-0.02,0.04
11.771,-0.02,0.06,0.02,0.06
11.781,-0.02,0.03,0.03,0.05
11.791,-0.00,0.02,0.08,0.08
11.801,0.00,0.02,0.07,0.08
11.811,0.00,0.02,0.04,0.04
11.821,-0.01,0.02,0.04,0.04
11.831,-0.01,-0.00,0.05,0.05
11.841,-0.03,-0.01,0.07,0.07
11.851,0.00,0.01,0.01,0.01
11.861,0.03,-0.01,-0.05,0.06
11.871,0.02,0.02,0.07,0.07
11.881,0.04,-0.00,0.08,0.09
11.891,0.06,-0.01,-0.08,0.10
11.901,0.03,-0.03,-0.22,0.22
11.911,-0.01,-0.03,-0.17,0.17
11.921,-0.01,-0.02,-0.05,0.05
11.931,0.01,-0.01,0.09,0.09
11.941,0.01,-0.02,0.08,0.08
11.951,-0.00,-0.01,-0.04,0.04
11.961,0.00,-0.01,-0.02,0.02
11.971,0.01,-0.02,0.09,0.09
11.981,0.03,-0.02,0.12,0.13
11.991,0.04,-0.02,0.07,0.09
12.001,0.03,-0.04,0.01,0.05
12.011,0.01,-0.04,-0.01,0.04
12.021,-0.00,-0.01,-0.05,0.05
12.031,-0.01,0.00,-0.05,0.06
12.041,-0.03,0.01,-0.07,0.08
12.051,-0.01,-0.00,-0.07,0.08
12.061,0.00,0.02,-0.03,0.03
12.071,0.01,0.02,0.02,0.03
12.081,-0.02,0.02,0.03,0.04
12.091,-0.03,0.02,-0.00,0.04
12.101,-0.04,0.04,-0.03,0.07
12.111,-0.04,0.06,-0.02,0.07
12.121,-0.03,0.06,0.02,0.07
12.131,-0.01,0.05,0.02,0.06
12.141,-0.00,0.05,-0.00,0.05
12.151,0.02,0.03,-0.02,0.04
12.161,0.01,0.03,-0.03,0.04
12.171,-0.02,0.02,-0.00,0.03
12.181,-0.00,-0.01,0.01,0.01
12.191,0.01,-0.01,0.02,0.02
12.201,-0.00,-0.02,0.01,0.02
12.211,0.01,-0.04,0.00,0.04
12.221,-0.01,-0.05,-0.02,0.05
12.231,0.00,-0.05,-0.01,0.05
12.241,0.01,-0.04,0.01,0.05
12.251,0.01,-0.04,0.03,0.05
12.261,0.03,-0.04,0.03,0.06
12.271,0.01,-0.04,0.04,0.06
12.281,0.01,-0.03,0.04,0.05
12.291,0.01,-0.03,0.03,0.04
12.301,0.00,-0.01,-0.02,0.02
12.312,0.00,0.01,-0.05,0.05
12.322,-0.04,0.04,-0.03,0.06
12.332,-0.04,0.04,-0.01,0.06
12.342,-0.04,0.04,0.01,0.06
12.352,-0.03,0.05,0.07,0.09
12.362,-0.02,0.07,0.09,0.11
12.372,0.00,0.07,0.05,0.08
12.381,0.00,0.04,-0.03,0.05
12.392,-0.01,-0.00,-0.15,0.15
12.402,-0.03,-0.04,-0.23,0.23
12.412,-0.05,-0.07,-0.00,0.09
12.422,-0.04,-0.06,0.07,0.10
12.432,0.01,0.02,-0.12,0.13
12.442,0.02,0.06,-0.12,0.13
12.452,-0.00,0.02,-0.15,0.15
12.462,0.01,-0.04,-0.07,0.08
12.472,0.05,-0.05,0.14,0.16
12.482,0.14,-0.05,0.28,0.32
12.492,0.13,-0.03,0.22,0.26
12.502,0.09,-0.02,0.08,0.12
12.512,0.02,-0.02,-0.00,0.03
12.522,-0.03,-0.04,-0.03,0.05
12.532,-0.04,-0.05,-0.03,0.07
12.542,-0.02,-0.05,-0.05,0.08
12.552,-0.03,-0.03,-0.10,0.10
12.562,-0.02,0.01,-0.09,0.10
12.572,-0.02,0.04,-0.06,0.08
12.582,-0.05,0.07,0.00,0.08
12.592,-0.06,0.07,0.04,0.10
12.602,-0.09,0.07,0.04,0.12
12.612,-0.10,0.05,0.01,0.11
12.622,-0.10,0.04,0.00,0.11
12.632,-0.12,0.03,0.00,0.13
12.642,-0.11,-0.00,0.02,0.11
12.652,-0.07,-0.01,0.01,0.07
12.662,-0.05,-0.02,0.01,0.05
12.672,-0.00,-0.02,-0.03,0.04
12.682,0.03,-0.03,0.05,0.06
12.692,0.02,-0.03,0.09,0.10
12.702,0.04,-0.03,-0.01,0.05
12.712,0.05,-0.03,-0.11,0.12
12.722,0.04,-0.01,-0.17,0.17
12.732,0.02,0.01,-0.12,0.12
12.742,0.03,-0.01,0.06,0.06
12.752,0.04,-0.00,0.09,0.10
12.762,0.09,-0.00,0.05,0.10
12.772,0.04,-0.02,-0.00,0.04
12.782,0.01,-0.03,0.03,0.05
12.792,0.03,-0.03,0.08,0.10
12.802,0.04,-0.03,0.09,0.10
12.812,0.01,-0.03,0.07,0.08
12.822,-0.04,-0.01,0.01,0.04
12.832,-0.05,0.01,-0.05,0.07
12.842,-0.05,0.03,-0.07,0.09
12.852,-0.07,0.01,-0.05,0.09
12.862,-0.06,0.00,-0.03,0.07
12.872,-0.04,0.01,-0.04,0.06
12.882,-0.05,0.02,-0.00,0.06
12.892,-0.07,0.03,0.01,0.08
12.902,-0.07,0.01,0.01,0.07
12.912,-0.04,0.00,-0.00,0.04
12.922,-0.03,0.02,-0.01,0.03
12.932,-0.00,0.00,0.01,0.01
12.942,0.00,0.00,0.01,0.01
12.952,0.02,0.01,-0.03,0.04
12.962,0.01,0.00,-0.02,0.02
12.972,0.02,0.01,-0.03,0.04
12.982,0.00,0.01,0.00,0.01
12.992,0.03,-0.00,0.00,0.03
13.002,0.03,-0.02,0.02,0.04
13.012,0.02,-0.01,0.01,0.02
13.022,0.01,-0.03,-0.00,0.03
13.032,0.02,-0.04,0.01,0.04
13.042,0.01,-0.02,-0.02,0.03
13.052,0.02,-0.02,0.01,0.03
13.062,0.02,-0.02,0.03,0.04
13.072,-0.00,-0.00,0.04,0.04
13.082,-0.01,-0.01,0.04,0.04
13.092,0.00,0.00,0.01,0.01
13.102,-0.01,0.03,-0.06,0.06
13.112,-0.04,0.02,-0.09,0.10
13.122,-0.05,0.01,-0.05,0.07
13.132,-0.05,0.01,0.02,0.05
13.142,-0.02,0.01,0.10,0.10
13.152,0.01,0.03,0.10,0.11
13.162,0.01,0.03,0.03,0.04
13.172,0.00,0.01,-0.04,0.04
13.182,-0.00,0.00,-0.13,0.13
13.192,-0.03,-0.02,-0.20,0.21
13.202,-0.05,-0.05,0.01,0.06
13.212,-0.05,-0.02,0.12,0.13
13.222,-0.00,0.05,-0.05,0.07
13.232,-0.01,0.09,-0.15,0.18
13.242,-0.01,0.03,-0.24,0.25
13.252,-0.05,-0.04,-0.18,0.19
13.262,-0.04,-0.08,0.06,0.10
13.272,0.03,-0.07,0.23,0.24
13.282,0.09,-0.04,0.25,0.27
13.292,0.10,-0.02,0.13,0.17
13.302,0.08,-0.01,0.02,0.08
13.312,0.05,0.01,0.00,0.05
13.322,0.03,0.02,0.03,0.04
13.332,0.01,0.01,0.01,0.01
13.342,-0.01,0.00,-0.05,0.05
13.352,-0.03,0.01,-0.10,0.10
13.362,-0.06,-0.01,-0.08,0.10
13.372,-0.08,-0.01,-0.03,0.09
13.382,-0.09,-0.01,0.03,0.09
13.392,-0.06,-0.01,0.07,0.09
13.403,-0.05,-0.02,0.02,0.06
13.412,-0.03,-0.01,-0.01,0.03
13.423,-0.01,0.02,0.01,0.02
13.432,-0.01,0.05,0.02,0.06
13.443,0.00,0.05,0.02,0.05
13.453,-0.01,0.05,0.03,0.06
13.463,0.03,0.06,0.02,0.07
13.473,0.05,0.03,0.01,0.06
13.483,0.03,0.03,0.13,0.13
13.493,0.00,0.02,0.11,0.11
13.503,0.03,-0.01,-0.06,0.07
13.513,0.00,-0.03,-0.21,0.21
13.523,-0.05,-0.04,-0.16,0.18
13.533,-0.01,-0.02,-0.02,0.03
13.543,0.05,0.01,0.10,0.11
13.553,0.05,0.02,0.05,0.07
13.563,0.07,0.02,-0.02,0.08
13.573,0.07,0.01,0.01,0.07
13.583,0.05,0.02,0.11,0.12
13.593,0.05,-0.01,0.13,0.14
13.603,0.02,-0.03,0.11,0.11
13.613,-0.01,-0.05,0.06,0.08
13.623,-0.03,-0.06,0.00,0.07
13.633,-0.04,-0.06,-0.04,0.08
13.643,-0.07,-0.03,-0.07,0.10
13.653,-0.05,-0.03,-0.04,0.07
13.663,-0.03,-0.01,0.07,0.08
13.673,-0.00,-0.00,0.12,0.12
13.683,0.00,0.00,0.10,0.10
13.693,0.03,0.00,0.05,0.06
13.703,-0.02,0.01,-0.01,0.03
13.713,-0.01,0.03,-0.07,0.07
13.723,-0.00,0.05,-0.10,0.11
13.733,-0.00,0.05,-0.08,0.10
13.743,-0.00,0.04,-0.07,0.08
13.753,0.02,0.03,-0.09,0.10
13.763,0.02,0.01,-0.09,0.09
13.773,0.05,-0.01,-0.07,0.09
13.783,0.04,0.02,-0.03,0.05
13.793,0.02,0.02,0.03,0.05
13.803,0.03,0.04,0.04,0.06
13.813,0.02,0.03,0.04,0.06
13.823,0.02,0.02,0.04,0.05
13.833,0.01,-0.02,0.02,0.03
13.843,0.01,-0.01,0.01,0.02
13.853,0.01,-0.03,0.02,0.04
13.863,0.01,-0.07,0.00,0.07
13.873,-0.02,-0.07,0.00,0.07
13.883,0.00,-0.07,0.02,0.08
13.893,-0.01,-0.07,0.01,0.07
13.903,0.02,-0.06,0.02,0.07
13.913,0.02,-0.02,0.03,0.04
13.923,0.01,-0.01,0.03,0.03
13.933,0.01,-0.01,0.05,0.05
13.943,0.01,-0.00,0.06,0.06
13.953,0.03,0.02,-0.00,0.04
13.963,0.03,0.02,-0.05,0.06
13.973,-0.01,0.02,-0.05,0.05
13.983,-0.02,0.02,0.04,0.05
13.993,-0.01,0.02,0.08,0.09
14.003,0.02,0.05,0.08,0.09
14.013,0.02,0.08,0.05,0.09
14.023,0.01,0.06,-0.06,0.08
14.033,0.00,0.04,-0.18,0.18
14.043,-0.02,0.02,-0.16,0.17
14.053,-0.03,-0.03,0.00,0.04
14.063,-0.01,-0.02,0.18,0.18
14.073,0.04,0.01,0.05,0.06
14.083,0.06,0.06,-0.13,0.15
14.093,0.02,0.05,-0.21,0.22
14.103,-0.00,-0.02,-0.12,0.12
14.113,0.02,-0.08,0.10,0.12
14.123,0.07,-0.10,0.24,0.27
14.133,0.12,-0.09,0.28,0.32
14.143,0.09,-0.04,0.22,0.24
14.153,0.08,-0.02,0.11,0.14
14.163,0.06,-0.00,0.03,0.07
14.173,0.03,0.01,0.01,0.03
14.183,-0.02,0.02,-0.02,0.04
14.193,-0.03,0.02,-0.06,0.07
14.203,-0.07,0.02,-0.09,0.12
14.213,-0.08,0.02,-0.05,0.10
14.223,-0.09,0.03,-0.02,0.09
14.233,-0.06,0.03,-0.01,0.07
14.243,-0.03,0.02,0.01,0.04
14.253,0.00,0.01,0.04,0.04
14.263,-0.00,0.02,0.06,0.06
14.273,-0.01,0.01,0.02,0.02
14.283,-0.00,0.02,-0.00,0.02
14.293,-0.01,0.01,0.01,0.02
14.303,0.01,0.02,0.06,0.07
14.313,0.02,0.03,0.06,0.07
14.323,0.05,0.03,-0.01,0.06
14.333,0.06,0.01,0.07,0.10
14.343,0.06,-0.00,0.11,0.12
14.353,0.06,-0.03,-0.03,0.07
14.363,0.03,-0.04,-0.21,0.21
14.373,-0.03,-0.04,-0.22,0.23
14.383,-0.04,-0.04,-0.09,0.10
14.393,0.00,-0.02,0.05,0.06
14.403,0.03,-0.00,0.08,0.09
14.413,0.02,0.02,0.02,0.04
14.423,0.05,0.01,0.01,0.05
14.433,0.03,-0.00,0.07,0.08
14.443,0.02,-0.00,0.13,0.13
14.453,0.04,0.01,0.11,0.12
14.463,0.00,0.00,0.04,0.04
14.473,-0.02,-0.00,-0.01,0.02
14.483,-0.04,0.01,-0.04,0.06
14.494,-0.05,0.02,-0.05,0.07
14.503,-0.05,-0.01,-0.04,0.07
14.513,-0.05,-0.02,-0.06,0.08
14.523,-0.03,-0.01,-0.04,0.05
14.534,0.01,-0.01,-0.00,0.01
14.543,0.00,-0.01,0.03,0.04
14.554,-0.01,0.00,0.03,0.03
14.564,-0.04,0.00,0.03,0.05
14.574,-0.02,0.01,0.01,0.03
14.584,0.01,0.02,0.00,0.02
14.594,0.01,0.01,0.01,0.02
14.604,0.00,0.00,0.03,0.03
14.614,0.01,0.00,0.03,0.03
14.624,0.03,-0.01,0.02,0.04
14.634,0.04,0.00,-0.02,0.04
14.644,0.01,0.01,-0.01,0.02
14.654,0.01,0.01,-0.00,0.01
14.664,0.02,0.02,-0.01,0.03
14.674,-0.00,0.03,-0.02,0.03
14.684,0.01,0.03,0.00,0.03
14.694,-0.01,0.02,0.00,0.02
14.704,-0.01,0.01,-0.03,0.03
14.714,-0.02,0.02,-0.02,0.03
14.724,-0.03,0.00,0.02,0.03
14.734,-0.03,0.00,0.01,0.03
14.744,-0.04,-0.00,-0.00,0.04
14.754,-0.04,-0.01,-0.02,0.05
14.764,-0.05,-0.02,-0.05,0.07
14.774,-0.07,-0.03,-0.07,0.11
14.784,-0.04,-0.02,-0.07,0.08
14.794,-0.05,-0.01,-0.04,0.06
14.804,-0.02,-0.00,0.02,0.03
14.814,-0.01,0.03,0.04,0.05
14.824,0.00,0.04,0.05,0.06
14.834,-0.00,0.04,-0.02,0.05
14.844,-0.02,0.00,-0.12,0.12
14.854,-0.01,-0.03,-0.23,0.23
14.864,-0.04,-0.06,-0.25,0.26
14.874,-0.06,-0.09,0.04,0.11
14.884,-0.06,-0.07,0.04,0.10
14.894,-0.01,0.01,-0.09,0.09
14.904,0.00,0.04,-0.09,0.10
14.914,-0.02,-0.00,-0.13,0.13
14.924,-0.01,-0.05,-0.07,0.09
14.934,0.04,-0.05,0.12,0.14
14.944,0.08,-0.03,0.21,0.23
14.954,0.09,0.00,0.15,0.18
14.964,0.05,0.01,0.04,0.06
14.974,0.03,0.01,-0.00,0.03
14.984,0.01,0.03,-0.02,0.04
14.994,-0.03,0.00,-0.01,0.03
15.004,-0.02,0.00,-0.01,0.03
15.014,-0.03,0.00,-0.05,0.06
15.024,-0.04,-0.00,-0.06,0.07
15.034,-0.04,0.02,-0.06,0.08
15.044,-0.05,0.03,-0.03,0.06
15.054,-0.05,0.04,0.00,0.06
15.064,-0.04,0.05,0.01,0.06
15.074,-0.04,0.01,0.03,0.05
15.084,-0.04,-0.01,0.02,0.05
15.094,-0.05,-0.01,0.03,0.06
15.104,-0.06,-0.04,0.02,0.07
15.114,-0.05,-0.03,0.02,0.06
15.124,-0.03,-0.01,0.00,0.03
15.134,0.01,-0.01,-0.02,0.02
15.144,0.05,0.01,0.06,0.07
15.154,0.03,0.02,0.12,0.12
15.164,0.05,0.02,0.01,0.05
15.174,0.03,-0.01,-0.09,0.10
15.184,0.00,-0.02,-0.17,0.17
15.194,-0.01,-0.00,-0.12,0.12
15.204,-0.03,-0.00,0.03,0.04
15.214,-0.04,0.01,0.08,0.09
15.224,0.04,0.03,0.03,0.05
15.234,0.08,-0.01,-0.02,0.09
15.244,0.12,-0.03,0.03,0.12
15.254,0.14,-0.03,0.09,0.17
15.264,0.11,-0.03,0.13,0.17
15.274,0.04,-0.02,0.13,0.13
15.284,-0.01,-0.02,0.07,0.07
15.294,-0.04,-0.01,-0.01,0.05
15.304,-0.06,0.01,-0.08,0.10
15.314,-0.05,0.02,-0.05,0.07
15.324,-0.03,0.02,-0.04,0.06
15.334,-0.01,0.02,-0.03,0.04
15.344,-0.01,0.03,-0.04,0.05
15.354,-0.07,0.01,0.00,0.07
15.364,-0.10,-0.01,-0.00,0.10
15.374,-0.10,-0.01,0.01,0.10
15.384,-0.07,-0.01,0.01,0.07
15.394,-0.05,0.01,0.02,0.05
15.404,0.01,0.01,0.03,0.04
15.414,0.05,0.03,0.01,0.06
15.424,0.06,0.03,-0.00,0.07
15.434,0.06,0.03,-0.01,0.07
15.444,0.05,0.02,0.01,0.06
15.454,0.03,0.01,0.02,0.04
15.464,0.02,0.00,0.02,0.03
15.474,0.01,-0.01,0.02,0.02
15.484,0.00,-0.02,0.01,0.02
15.494,0.03,-0.02,0.01,0.03
15.504,0.01,-0.01,0.02,0.02
15.514,0.04,0.01,-0.00,0.04
15.524,0.03,0.02,0.00,0.04
15.534,0.03,0.02,0.02,0.04
15.545,0.01,0.01,0.00,0.02
15.554,-0.01,-0.00,0.01,0.02
15.565,-0.00,-0.02,0.04,0.05
15.574,-0.02,-0.02,0.06,0.06
15.585,0.00,-0.02,0.03,0.03
15.594,0.01,-0.03,-0.05,0.06
15.605,-0.02,-0.02,-0.10,0.10
15.615,-0.04,-0.03,-0.07,0.09
15.625,-0.04,-0.04,-0.01,0.06
15.635,-0.01,-0.06,0.07,0.09
15.645,0.00,-0.05,0.08,0.09
15.655,0.02,-0.02,0.05,0.06
15.665,0.01,0.01,-0.03,0.03
15.675,0.03,0.02,-0.15,0.15
15.685,0.03,0.01,-0.17,0.18
15.695,0.03,0.00,-0.05,0.05
15.705,0.03,0.00,0.18,0.18
15.715,0.06,0.06,0.03,0.09
15.725,0.04,0.11,-0.13,0.17
15.735,-0.03,0.08,-0.21,0.23
15.745,-0.04,0.01,-0.16,0.17
15.755,-0.05,-0.04,0.04,0.08
15.765,0.03,-0.03,0.23,0.24
15.775,0.06,-0.02,0.25,0.26
15.785,0.07,0.00,0.16,0.18
15.795,0.07,0.02,0.05,0.09
15.805,0.06,0.02,0.01,0.07
15.815,0.04,0.03,0.01,0.05
15.825,0.03,0.00,0.05,0.06
15.835,0.01,0.01,0.01,0.02
15.845,-0.01,0.01,-0.03,0.03
15.855,-0.03,0.02,-0.04,0.05
15.865,-0.05,0.02,-0.02,0.05
15.875,-0.05,0.03,0.01,0.06
15.885,-0.06,-0.00,0.00,0.06
15.895,-0.04,-0.03,0.02,0.06
15.905,-0.04,-0.03,0.01,0.05
15.915,-0.05,-0.05,0.02,0.07
15.925,-0.06,-0.02,0.04,0.07
15.935,-0.04,0.00,0.06,0.07
15.945,-0.01,0.00,0.06,0.06
15.955,0.00,0.00,0.05,0.05
15.965,0.02,0.01,-0.03,0.04
15.975,0.04,0.02,0.01,0.04
15.985,0.03,0.02,0.10,0.10
15.995,0.04,0.01,0.01,0.04
16.005,0.03,0.02,-0.17,0.17
16.015,-0.02,0.00,-0.20,0.20
16.025,-0.02,0.03,-0.08,0.09
16.035,0.02,0.04,0.07,0.09
16.045,0.05,0.04,0.09,0.11
16.055,0.06,0.04,0.01,0.07
16.065,0.06,0.02,-0.03,0.07
16.075,0.04,0.00,0.03,0.05
16.085,0.03,-0.01,0.12,0.12
16.095,0.06,-0.04,0.13,0.15
16.105,0.04,-0.06,0.08,0.11
16.115,0.01,-0.07,0.04,0.08
16.125,-0.03,-0.03,0.00,0.05
16.135,-0.04,-0.03,-0.01,0.05
16.145,-0.03,-0.01,-0.05,0.06
16.155,-0.02,-0.00,-0.08,0.08
16.165,-0.02,0.01,-0.07,0.08
16.175,-0.03,-0.01,-0.04,0.06
16.185,-0.05,0.02,-0.00,0.05
16.195,-0.05,-0.01,0.03,0.06
16.205,-0.04,-0.01,0.02,0.05
16.215,-0.03,0.01,0.02,0.04
16.225,-0.01,0.02,0.04,0.04
16.235,-0.00,0.02,0.01,0.03
16.245,0.02,0.02,0.03,0.04
16.255,0.01,0.02,0.05,0.06
16.265,-0.01,0.02,0.05,0.05
16.275,0.00,0.04,-0.01,0.05
16.285,0.02,0.06,-0.04,0.08
16.295,0.04,0.04,-0.04,0.07
16.305,0.05,0.04,0.01,0.07
16.315,0.08,0.02,0.06,0.10
16.325,0.07,0.00,0.05,0.09
16.335,0.05,0.00,-0.01,0.05
16.345,0.01,0.01,-0.05,0.05
16.355,-0.03,0.02,-0.04,0.05
16.365,-0.03,0.01,-0.02,0.04
16.375,-0.01,-0.01,0.00,0.01
16.385,-0.02,-0.02,0.00,0.03
16.395,-0.03,-0.04,0.02,0.05
16.405,-0.01,-0.06,0.03,0.07
16.415,-0.02,-0.08,0.02,0.08
16.425,-0.00,-0.07,0.04,0.08
16.435,-0.00,-0.06,0.03,0.06
16.445,-0.04,-0.04,-0.00,0.06
16.455,-0.04,-0.03,-0.03,0.06
16.465,-0.04,-0.02,-0.05,0.07
16.475,-0.04,-0.01,-0.04,0.06
16.485,-0.03,0.00,-0.03,0.04
16.495,0.01,0.01,0.04,0.04
16.505,0.04,0.02,0.09,0.10
16.515,0.03,0.04,0.07,0.09
16.525,0.01,0.06,0.00,0.06
16.535,0.02,0.05,-0.06,0.08
16.545,0.02,0.03,-0.18,0.18
16.555,-0.02,0.02,-0.19,0.19
16.565,-0.03,-0.00,0.08,0.09
16.575,-0.03,0.02,0.00,0.04
16.585,-0.02,0.07,-0.12,0.14
16.595,-0.03,0.08,-0.15,0.17
16.605,-0.03,0.01,-0.16,0.17
16.615,-0.02,-0.05,-0.01,0.05
16.625,0.05,-0.06,0.23,0.24
16.636,0.12,-0.04,0.29,0.31
16.645,0.12,-0.01,0.19,0.22
16.655,0.07,-0.02,0.03,0.08
16.665,0.03,-0.01,-0.03,0.04
16.676,0.02,-0.01,-0.01,0.02
16.686,-0.02,-0.04,0.01,0.04
16.696,-0.03,-0.04,-0.02,0.06
16.706,-0.04,-0.03,-0.08,0.09
16.716,-0.03,-0.02,-0.06,0.07
16.726,-0.07,0.00,0.00,0.07
16.736,-0.07,0.02,0.03,0.08
16.746,-0.05,0.03,0.05,0.07
16.756,-0.05,0.01,0.01,0.05
16.766,-0.04,0.02,-0.04,0.06
16.776,-0.05,0.00,-0.01,0.06
16.786,-0.06,0.00,0.04,0.07
16.796,-0.04,0.02,0.08,0.09
16.806,-0.03,0.01,0.04,0.05
16.816,-0.01,0.02,0.01,0.03
16.826,0.00,0.03,-0.04,0.05
16.836,0.01,0.03,0.04,0.05
16.846,-0.01,0.02,0.09,0.09
16.856,0.02,0.02,-0.01,0.03
16.866,0.02,-0.00,-0.11,0.11
16.876,-0.00,0.01,-0.22,0.22
16.886,-0.01,0.01,-0.18,0.18
16.896,-0.00,0.00,-0.02,0.02
16.906,0.03,0.01,0.06,0.07
16.916,0.03,0.00,0.03,0.04
16.926,0.03,0.00,0.01,0.04
16.936,0.02,-0.00,0.05,0.06
16.946,0.05,-0.02,0.14,0.15
16.956,0.06,-0.03,0.16,0.17
16.966,0.05,-0.04,0.09,0.12
16.976,-0.00,-0.03,0.01,0.04
16.986,-0.06,-0.01,-0.02,0.06
16.996,-0.04,-0.01,-0.05,0.06
17.006,-0.05,-0.01,-0.05,0.07
17.016,-0.04,-0.02,-0.05,0.07
17.026,-0.03,-0.02,-0.05,0.06
17.036,-0.02,-0.02,-0.00,0.02
17.046,-0.03,-0.00,0.03,0.05
17.056,-0.08,0.00,0.03,0.08
17.066,-0.05,0.01,0.00,0.05
17.076,-0.05,0.00,-0.01,0.06
17.086,-0.04,0.00,-0.00,0.04
17.096,-0.03,0.01,0.02,0.04
17.106,0.01,0.03,0.01,0.03
17.116,0.03,0.03,-0.02,0.05
17.126,0.03,0.03,-0.02,0.05
17.136,0.01,0.04,-0.02,0.05
17.146,0.03,0.05,-0.01,0.06
17.156,0.04,0.05,0.00,0.06
17.166,0.03,0.04,0.00,0.05
17.176,0.04,0.01,0.00,0.04
17.186,0.02,-0.01,0.00,0.02
17.196,0.03,-0.02,-0.01,0.03
17.206,0.02,-0.01,-0.02,0.03
17.216,0.02,-0.02,-0.01,0.03
17.226,0.01,-0.02,-0.01,0.03
17.236,0.01,-0.01,0.02,0.03
17.246,0.00,-0.04,0.02,0.04
17.256,-0.01,-0.03,0.01,0.04
17.266,-0.00,-0.04,0.01,0.04
17.276,-0.00,-0.03,-0.02,0.04
17.286,-0.02,-0.02,-0.06,0.06
17.296,-0.04,-0.02,-0.04,0.06
17.306,-0.05,-0.01,-0.02,0.06
17.316,-0.04,0.00,0.05,0.06
17.326,-0.02,0.02,0.09,0.09
17.336,0.00,0.01,0.04,0.04
17.346,-0.00,0.04,-0.05,0.06
17.356,-0.02,0.01,-0.12,0.12
17.366,-0.01,-0.01,-0.17,0.17
17.376,-0.04,-0.03,-0.09,0.10
17.386,-0.02,-0.03,0.18,0.18
17.396,0.02,0.02,0.06,0.07
17.406,0.04,0.06,-0.08,0.11
17.416,0.02,0.06,-0.21,0.22
17.426,-0.04,-0.01,-0.25,0.26
17.436,-0.02,-0.08,-0.08,0.11
17.446,0.03,-0.08,0.18,0.20
17.456,0.08,-0.05,0.26,0.27
17.466,0.08,-0.02,0.19,0.21
17.476,0.05,0.00,0.04,0.07
17.486,0.02,-0.01,0.00,0.02
17.496,0.00,0.01,0.05,0.05
17.506,0.01,0.02,0.09,0.09
17.516,0.01,0.03,0.04,0.05
17.526,0.00,0.04,-0.04,0.06
17.536,-0.05,0.04,-0.08,0.10
17.546,-0.06,0.03,-0.05,0.09
17.556,-0.08,0.01,-0.01,0.08
17.566,-0.08,-0.01,-0.00,0.08
17.576,-0.07,0.00,-0.02,0.07
17.586,-0.03,-0.01,-0.00,0.03
17.596,-0.02,0.01,0.00,0.02
17.606,-0.03,0.01,-0.01,0.03
17.616,-0.02,0.01,-0.00,0.03
17.626,-0.02,0.03,0.03,0.05
17.636,-0.01,0.01,0.04,0.04
17.646,-0.00,0.01,-0.02,0.02
17.656,0.03,-0.02,0.01,0.04
17.666,0.03,-0.02,0.11,0.12
17.676,0.03,-0.01,0.06,0.07
17.687,0.03,-0.03,-0.13,0.14
17.696,-0.01,-0.04,-0.26,0.26
17.707,-0.02,-0.03,-0.15,0.15
17.717,-0.03,0.01,-0.00,0.03
17.726,0.00,0.00,0.10,0.10
17.736,0.03,0.01,0.06,0.07
17.747,0.03,-0.01,-0.02,0.04
17.757,0.04,-0.02,0.01,0.04
17.767,0.04,-0.03,0.12,0.13
17.777,0.05,-0.03,0.13,0.15
17.786,0.04,-0.02,0.06,0.08
17.797,0.01,-0.01,0.01,0.02
17.807,-0.02,0.02,-0.02,0.03
17.817,-0.02,0.00,-0.03,0.04
17.827,-0.03,0.03,-0.05,0.06
17.837,-0.05,0.02,-0.05,0.07
17.847,-0.05,0.02,-0.04,0.07
17.857,-0.00,0.03,-0.02,0.04
17.867,-0.02,0.02,-0.00,0.03
17.877,-0.02,0.01,0.03,0.04
17.887,-0.04,0.02,0.03,0.05
17.897,-0.03,0.00,0.03,0.04
17.907,-0.02,-0.00,0.02,0.03
17.917,0.02,-0.01,0.01,0.02
17.927,0.03,-0.00,-0.01,0.03
17.937,0.04,0.00,0.00,0.04
17.947,0.05,-0.00,0.02,0.06
17.957,0.04,-0.01,0.01,0.05
17.967,0.05,-0.00,0.01,0.05
17.977,0.03,-0.01,0.01,0.04
17.987,0.03,-0.00,0.02,0.04
17.997,0.03,-0.01,0.01,0.03
18.007,0.03,-0.01,0.02,0.04
18.017,0.02,-0.01,0.01,0.03
18.027,0.01,-0.00,0.02,0.02
18.037,0.01,0.02,0.01,0.02
18.047,0.00,0.01,0.01,0.01
18.057,-0.01,0.02,-0.00,0.02
18.067,0.00,0.01,0.00,0.01
18.077,0.00,0.02,-0.00,0.02
18.087,0.01,0.02,0.01,0.02
18.097,-0.00,0.02,0.03,0.04
18.107,-0.01,-0.00,0.04,0.04
18.117,0.01,-0.00,0.02,0.03
18.127,-0.01,-0.00,-0.02,0.02
18.137,-0.03,0.01,-0.04,0.05
18.147,-0.01,0.00,-0.04,0.04
18.157,0.01,0.01,0.05,0.05
18.167,0.01,0.02,0.11,0.11
18.177,0.03,0.02,0.11,0.12
18.187,0.04,0.03,0.05,0.07
18.197,0.02,0.02,-0.05,0.05
18.207,0.00,-0.01,-0.13,0.13
18.217,-0.04,-0.05,-0.17,0.18
18.227,-0.02,-0.10,0.01,0.10
18.237,-0.03,-0.07,0.13,0.15
18.247,0.01,-0.00,-0.07,0.07
18.257,-0.00,0.03,-0.18,0.19
18.267,-0.02,0.01,-0.23,0.23
18.277,-0.04,-0.05,-0.13,0.14
18.287,0.01,-0.08,0.12,0.15
18.297,0.09,-0.06,0.29,0.31
18.307,0.11,-0.02,0.26,0.28
18.317,0.09,-0.00,0.12,0.15
18.327,0.05,0.02,-0.00,0.05
18.337,0.02,0.02,-0.00,0.03
18.347,0.04,0.02,0.02,0.05
18.357,-0.01,0.01,0.02,0.02
18.367,0.01,-0.02,-0.03,0.04
18.377,-0.03,0.01,-0.05,0.06
18.387,-0.03,0.02,-0.06,0.07
18.397,-0.04,0.04,-0.02,0.06
18.407,-0.04,0.06,0.03,0.08
18.417,-0.01,0.05,0.03,0.06
18.427,-0.04,0.04,0.04,0.07
18.437,-0.04,0.02,0.01,0.04
18.447,-0.03,0.00,-0.01,0.03
18.457,-0.05,-0.01,0.02,0.06
18.467,-0.04,-0.02,0.06,0.07
18.477,-0.03,-0.03,0.03,0.05
18.487,-0.03,-0.02,-0.01,0.03
18.497,0.01,-0.01,-0.05,0.06
18.507,0.02,-0.02,0.02,0.04
18.517,0.00,-0.00,0.08,0.08
18.527,0.03,-0.03,-0.02,0.04
18.537,0.01,-0.05,-0.16,0.16
18.547,0.00,-0.04,-0.20,0.20
18.557,0.02,-0.00,-0.06,0.07
18.567,0.05,-0.02,0.08,0.10
18.577,0.06,0.00,0.06,0.08
18.587,0.07,0.02,-0.01,0.07
18.597,0.04,0.01,-0.03,0.05
18.607,0.04,0.01,0.09,0.10
18.617,0.05,-0.01,0.17,0.17
18.627,0.07,-0.03,0.15,0.17
18.637,0.06,-0.01,0.07,0.09
18.647,0.01,0.01,0.02,0.03
18.657,-0.01,0.03,0.00,0.04
18.667,-0.01,0.05,-0.01,0.05
18.677,-0.04,0.04,-0.05,0.08
18.687,-0.02,0.02,-0.05,0.06
18.697,-0.01,0.00,-0.02,0.02
18.707,-0.02,0.01,0.03,0.04
18.717,-0.05,0.00,0.05,0.07
18.727,-0.07,0.02,-0.00,0.07
18.738,-0.05,0.02,-0.08,0.09
18.747,-0.00,0.02,-0.08,0.09
18.757,0.01,0.04,0.02,0.05
18.767,0.05,0.04,0.11,0.12
18.778,0.06,0.05,0.11,0.13
18.787,0.05,0.05,0.08,0.11
18.797,0.05,0.03,0.02,0.06
18.808,0.03,-0.00,0.02,0.03
18.817,0.01,0.00,0.01,0.01
18.828,-0.01,0.02,-0.01,0.02
18.838,-0.01,-0.00,-0.01,0.02
18.848,-0.05,-0.02,-0.01,0.05
18.858,-0.04,-0.04,-0.03,0.06
18.868,-0.05,-0.06,-0.02,0.08
18.878,-0.07,-0.08,-0.02,0.11
18.888,-0.08,-0.04,-0.03,0.09
18.898,-0.07,-0.05,0.02,0.09
18.908,-0.06,-0.06,0.03,0.09
18.918,-0.04,-0.06,0.02,0.07
18.928,-0.04,-0.06,-0.04,0.08
18.938,-0.04,-0.04,-0.09,0.10
18.948,-0.04,-0.04,-0.06,0.08
18.958,-0.04,-0.01,-0.01,0.04
18.968,-0.01,0.03,0.03,0.04
18.978,0.00,0.05,0.03,0.06
18.988,0.02,0.08,0.01,0.08
18.998,-0.02,0.09,-0.09,0.13
19.008,-0.03,0.07,-0.16,0.18
19.018,-0.01,0.03,-0.19,0.20
19.028,-0.03,0.04,-0.14,0.15
19.038,-0.05,0.02,0.05,0.07
19.048,-0.04,0.03,-0.04,0.06
19.058,-0.03,0.09,-0.02,0.10
19.068,-0.02,0.08,-0.03,0.09
19.078,-0.01,-0.01,-0.09,0.09
19.088,-0.03,-0.06,-0.04,0.08
19.098,0.02,-0.08,0.09,0.12
19.108,0.06,-0.06,0.18,0.20
19.118,0.06,-0.05,0.17,0.19
19.128,0.03,-0.03,0.06,0.08
19.138,0.01,-0.03,0.01,0.04
19.148,0.01,-0.06,-0.02,0.07
19.158,-0.03,-0.07,-0.01,0.08
19.168,-0.02,-0.08,0.00,0.08
19.178,-0.03,-0.07,-0.01,0.07
19.188,-0.02,-0.02,-0.01,0.03
19.198,-0.01,0.01,-0.01,0.02
19.208,-0.02,0.04,0.04,0.06
19.218,-0.00,0.04,0.06,0.07
19.228,-0.02,0.03,0.05,0.06
19.238,-0.02,0.03,0.02,0.04
19.248,-0.03,0.03,0.01,0.04
19.258,-0.02,0.02,-0.00,0.03
19.268,-0.03,0.04,0.00,0.05
19.278,-0.01,0.06,-0.02,0.07
19.288,0.01,0.07,-0.00,0.07
19.298,0.02,0.06,0.00,0.06
19.308,0.03,0.05,0.08,0.10
19.318,0.01,0.03,0.07,0.08
19.328,0.01,0.00,-0.04,0.04
19.338,-0.01,-0.03,-0.11,0.12
19.348,-0.01,-0.02,-0.17,0.17
19.358,0.02,-0.00,-0.10,0.10
19.368,0.00,-0.00,0.05,0.05
19.378,0.05,-0.01,0.09,0.10
19.388,0.06,-0.02,0.03,0.07
19.398,0.04,-0.04,-0.00,0.06
19.408,0.02,-0.05,0.03,0.07
19.418,0.04,-0.06,0.04,0.08
19.428,0.07,-0.05,0.06,0.10
19.438,0.02,-0.06,0.05,0.08
19.448,-0.00,-0.06,0.04,0.07
19.458,-0.01,-0.04,-0.00,0.04
19.468,-0.02,0.01,-0.02,0.03
19.478,-0.01,0.04,-0.00,0.04
19.488,-0.00,0.07,0.01,0.07
19.498,0.00,0.06,-0.02,0.07
19.508,-0.02,0.04,-0.06,0.08
19.518,-0.03,0.01,-0.03,0.04
19.528,-0.06,-0.00,-0.00,0.06
19.538,-0.05,0.00,0.02,0.05
19.548,-0.01,0.02,0.02,0.03
19.558,0.01,0.03,0.02,0.04
19.568,-0.00,0.04,0.01,0.04
19.578,0.02,0.02,0.00,0.03
19.588,0.03,0.01,-0.02,0.04
19.598,0.00,-0.01,-0.01,0.02
19.608,-0.01,-0.00,-0.01,0.01
19.618,-0.02,0.02,-0.04,0.05
19.628,-0.03,0.01,-0.04,0.05
19.638,-0.01,-0.01,-0.03,0.04
19.648,0.01,0.00,-0.03,0.03
19.658,0.01,-0.00,-0.04,0.04
19.668,0.01,-0.03,-0.04,0.05
19.678,-0.00,-0.03,-0.02,0.03
19.688,-0.01,-0.02,-0.01,0.03
19.698,-0.00,-0.02,0.02,0.02
19.708,-0.01,-0.02,0.02,0.03
19.718,0.02,0.01,0.02,0.03
19.728,0.03,-0.00,-0.00,0.03
19.738,-0.01,0.02,-0.05,0.05
19.748,-0.02,0.01,-0.08,0.08
19.758,-0.03,-0.00,-0.05,0.06
19.768,-0.03,-0.01,0.02,0.04
19.778,-0.02,0.01,0.07,0.08
19.788,-0.00,0.03,0.07,0.08
19.798,-0.03,0.03,-0.04,0.06
19.808,-0.02,0.02,-0.13,0.14
19.818,-0.04,0.01,-0.18,0.18
19.828,-0.05,-0.04,-0.10,0.12
19.838,-0.06,-0.06,0.17,0.19
19.848,-0.01,-0.03,0.08,0.09
19.859,0.01,0.01,-0.10,0.10
19.868,-0.02,0.03,-0.21,0.21
19.879,-0.04,-0.00,-0.27,0.27
19.889,-0.06,-0.06,-0.11,0.13
19.899,-0.01,-0.07,0.15,0.16
19.908,0.03,-0.06,0.28,0.29
19.919,0.07,-0.02,0.22,0.23
19.929,0.08,0.01,0.08,0.12
19.939,0.07,0.04,0.02,0.08
19.949,0.06,0.01,0.01,0.06
19.959,0.02,0.02,0.04,0.05
19.969,0.01,0.01,0.01,0.02
19.979,-0.01,0.02,-0.04,0.04
19.989,-0.03,0.01,-0.06,0.07
19.999,-0.03,0.03,-0.03,0.05
20.009,-0.05,0.04,0.01,0.07
20.019,-0.05,0.02,0.01,0.05
20.029,-0.03,0.02,0.05,0.06
20.039,0.00,0.00,0.09,0.09
20.049,0.05,-0.04,0.15,0.16
20.059,0.08,-0.03,0.17,0.19
20.069,0.11,-0.04,0.15,0.19
20.079,0.14,-0.01,0.10,0.17
20.089,0.06,0.04,0.06,0.09
20.099,0.02,0.06,-0.01,0.07
20.109,-0.01,0.05,-0.05,0.07
20.119,-0.06,0.04,0.07,0.10
20.129,-0.05,0.04,0.05,0.08
20.139,-0.04,0.00,-0.13,0.14
20.149,-0.06,-0.01,-0.25,0.26
20.159,-0.04,-0.02,-0.18,0.18
20.169,-0.01,-0.02,-0.01,0.02
20.179,0.06,0.01,0.06,0.08
20.189,0.08,0.00,0.02,0.08
20.199,0.07,-0.00,-0.08,0.11
20.209,0.06,-0.00,-0.05,0.07
20.219,0.01,-0.02,0.06,0.07
20.229,0.03,-0.03,0.12,0.13
20.239,0.02,-0.05,0.07,0.08
20.249,-0.01,-0.05,0.03,0.06
20.259,-0.02,-0.04,0.04,0.06
20.269,-0.03,-0.01,0.01,0.03
20.279,-0.02,0.02,-0.04,0.05
20.289,-0.01,0.04,-0.07,0.08
20.299,-0.01,0.05,-0.06,0.08
20.309,-0.00,0.06,-0.03,0.06
20.319,-0.00,0.05,0.01,0.06
20.329,-0.00,0.04,0.01,0.04
20.339,-0.02,0.03,0.00,0.03
20.349,-0.02,0.01,0.02,0.03
20.359,0.00,0.00,0.04,0.04
20.369,0.01,0.02,0.04,0.05
20.379,0.03,0.02,0.03,0.04
20.389,0.02,0.02,0.00,0.02
20.399,0.03,-0.00,-0.00,0.03
20.409,0.03,0.01,0.00,0.03
20.419,0.01,-0.00,0.01,0.02
20.429,0.03,0.00,-0.01,0.03
20.439,0.02,-0.00,0.00,0.02
20.449,0.04,-0.00,0.03,0.05
20.459,0.04,0.01,0.05,0.06
20.469,0.06,0.00,0.06,0.08
20.479,0.03,0.01,0.07,0.08
20.489,0.03,-0.00,0.06,0.07
20.499,0.01,-0.02,0.05,0.05
20.509,0.00,-0.01,0.04,0.04
20.519,-0.00,-0.01,-0.00,0.01
20.529,-0.01,-0.00,-0.04,0.04
20.539,-0.03,-0.00,-0.06,0.07
20.549,-0.03,-0.01,-0.01,0.03
20.559,0.00,-0.01,0.07,0.07
20.569,0.02,-0.02,0.12,0.12
20.579,0.03,0.04,0.09,0.10
20.589,0.03,0.04,0.01,0.05
20.599,0.02,0.04,-0.07,0.08
20.609,-0.01,0.01,-0.16,0.16
20.619,-0.03,-0.02,-0.17,0.17
20.629,-0.05,-0.06,0.09,0.13
20.639,-0.03,-0.03,0.11,0.12
20.649,-0.01,0.02,-0.08,0.08
20.659,-0.03,0.03,-0.21,0.21
20.669,-0.02,-0.00,-0.27,0.27
20.679,-0.02,-0.04,-0.11,0.12
20.689,0.02,-0.07,0.17,0.18
20.699,0.11,-0.06,0.30,0.32
20.709,0.12,-0.02,0.26,0.28
20.719,0.12,0.01,0.12,0.17
20.729,0.08,0.03,0.01,0.09
20.739,0.05,0.03,-0.02,0.06
20.749,0.02,0.03,-0.03,0.04
20.759,-0.01,-0.00,-0.01,0.02
20.769,-0.02,-0.01,-0.03,0.04
20.779,-0.06,-0.00,-0.05,0.07
20.789,-0.05,0.02,-0.04,0.07
20.799,-0.05,0.02,-0.02,0.05
20.809,-0.04,0.04,-0.01,0.06
20.819,-0.05,0.03,-0.01,0.05
20.829,-0.04,0.04,0.01,0.06
20.839,-0.03,0.01,-0.00,0.03
20.849,-0.04,0.01,0.01,0.04
20.859,-0.05,0.03,0.02,0.06
20.869,-0.05,0.01,0.05,0.07
20.879,-0.04,-0.01,0.05,0.07
20.889,-0.01,-0.00,0.02,0.03
20.899,0.03,-0.01,-0.00,0.03
20.909,0.02,-0.01,0.07,0.07
20.919,0.02,0.00,0.06,0.06
20.929,0.03,-0.02,-0.09,0.10
20.940,0.01,-0.02,-0.22,0.22
20.950,-0.01,-0.02,-0.22,0.22
20.959,-0.01,-0.02,-0.03,0.04
20.970,0.04,0.01,0.09,0.10
20.980,0.07,0.01,0.09,0.11
20.990,0.05,0.01,0.02,0.05
21.000,0.04,-0.01,0.01,0.04
21.010,0.03,-0.02,0.08,0.09
21.020,0.01,-0.03,0.13,0.14
21.030,0.01,-0.03,0.11,0.12
21.040,-0.00,-0.01,0.04,0.04
21.050,-0.01,0.00,0.03,0.03
21.060,-0.02,0.03,-0.01,0.04
21.070,-0.04,0.02,-0.06,0.07
21.080,-0.07,0.03,-0.07,0.10
21.090,-0.04,0.01,-0.08,0.09
21.100,-0.04,0.03,-0.03,0.06
21.110,-0.03,0.03,-0.00,0.04
21.120,-0.04,0.00,0.02,0.04
21.130,-0.04,0.01,0.04,0.06
21.140,-0.04,-0.00,-0.01,0.04
21.150,-0.03,-0.01,-0.01,0.04
21.160,-0.03,-0.02,0.04,0.05
21.170,-0.00,0.01,0.04,0.04
21.180,0.03,0.03,-0.00,0.04
21.190,0.03,0.01,-0.04,0.05
21.200,0.00,0.02,-0.03,0.03
21.210,0.02,0.03,-0.02,0.04
21.220,-0.01,0.02,-0.03,0.03
21.230,-0.02,0.01,-0.02,0.03
21.240,-0.02,-0.00,-0.00,0.02
21.250,-0.01,-0.02,0.02,0.03
21.260,0.00,-0.03,-0.00,0.03
21.270,-0.01,-0.03,-0.04,0.05
21.280,-0.03,-0.00,-0.06,0.07
21.290,-0.02,-0.01,-0.06,0.07
21.300,-0.04,-0.01,-0.07,0.08
21.310,-0.05,-0.01,0.01,0.05
21.320,-0.01,-0.01,0.06,0.06
21.330,0.02,-0.00,0.11,0.11
21.340,0.01,0.01,0.07,0.07
21.350,-0.00,0.01,-0.05,0.05
21.360,-0.05,-0.01,-0.15,0.16
21.370,-0.05,-0.04,-0.21,0.22
21.380,-0.06,-0.04,-0.09,0.11
21.390,-0.08,-0.07,0.05,0.12
21.400,-0.04,-0.02,-0.04,0.06
21.410,0.01,0.07,-0.00,0.07
21.420,0.02,0.06,-0.08,0.10
21.430,-0.00,0.01,-0.15,0.15
21.440,0.00,-0.05,-0.03,0.06
21.450,0.06,-0.07,0.15,0.18
21.460,0.09,-0.04,0.24,0.26
21.470,0.08,0.01,0.16,0.18
21.480,0.06,0.05,0.07,0.10
21.490,0.05,0.04,0.01,0.07
21.500,0.04,0.02,0.02,0.05
21.510,0.00,0.01,0.04,0.04
21.520,0.02,-0.00,-0.01,0.02
21.530,-0.01,-0.01,-0.06,0.06
21.540,-0.03,0.00,-0.06,0.06
21.550,-0.02,0.02,-0.03,0.04
21.560,-0.04,0.03,0.01,0.05
21.570,-0.05,0.03,0.01,0.06
21.580,-0.05,0.01,0.02,0.06
21.590,-0.06,-0.01,0.01,0.06
21.600,-0.04,-0.02,0.03,0.05
21.610,-0.04,-0.00,0.02,0.05
21.620,-0.03,-0.01,0.02,0.04
21.630,-0.03,0.00,0.00,0.03
21.640,-0.01,0.01,-0.02,0.03
21.650,0.02,0.01,-0.01,0.02
21.660,0.02,0.01,0.10,0.10
21.670,0.02,0.02,0.10,0.10
21.680,0.03,-0.00,-0.04,0.05
21.690,0.02,-0.01,-0.15,0.15
21.700,0.01,0.01,-0.20,0.20
21.710,0.02,0.01,-0.09,0.09
21.720,0.01,0.00,0.07,0.07
21.730,0.06,-0.00,0.09,0.11
21.740,0.07,0.02,-0.00,0.08
21.750,0.06,-0.00,-0.04,0.07
21.760,0.03,0.00,0.02,0.03
21.770,0.03,-0.02,0.06,0.07
21.780,0.02,-0.02,0.05,0.06
21.790,0.01,-0.03,0.02,0.04
21.800,-0.03,-0.02,-0.01,0.03
21.810,-0.05,-0.00,-0.03,0.06
21.820,-0.04,0.01,-0.05,0.07
21.830,-0.05,0.02,-0.03,0.06
21.840,-0.02,0.01,-0.02,0.03
21.850,0.03,0.01,-0.01,0.03
21.860,0.02,0.01,-0.02,0.03
21.870,-0.02,-0.01,0.01,0.02
21.880,-0.05,-0.02,0.03,0.06
21.890,-0.05,-0.01,0.03,0.06
21.900,-0.04,-0.00,0.02,0.04
21.910,-0.01,0.00,0.00,0.01
21.920,0.01,-0.00,-0.01,0.01
21.930,0.01,-0.00,-0.02,0.02
21.940,0.03,0.01,-0.01,0.03
21.950,0.01,0.01,-0.00,0.01
21.960,0.02,-0.01,0.01,0.02
21.970,0.03,0.01,0.01,0.03
21.980,0.03,0.00,0.01,0.03
21.991,0.04,0.01,0.04,0.06
22.000,0.04,0.01,0.00,0.04
22.011,0.03,0.03,0.01,0.04
22.021,0.04,0.00,0.03,0.05
22.031,0.03,0.02,0.02,0.04
22.041,0.01,0.00,0.03,0.03
22.051,0.02,0.02,0.00,0.02
22.061,0.02,0.00,-0.03,0.04
22.071,-0.01,0.01,-0.06,0.07
22.081,-0.03,0.00,-0.06,0.07
22.091,-0.02,-0.01,0.01,0.03
22.101,-0.01,0.00,0.09,0.09
22.111,-0.01,0.02,0.09,0.09
22.121,-0.02,0.02,0.03,0.04
22.131,-0.01,0.00,-0.06,0.06
22.141,0.01,-0.01,-0.13,0.13
22.151,-0.02,-0.04,-0.14,0.15
22.161,-0.03,-0.09,0.04,0.11
22.171,-0.04,-0.06,0.15,0.17
22.181,0.01,0.02,-0.02,0.03
22.191,-0.00,0.08,-0.15,0.17
22.201,-0.03,0.02,-0.27,0.27
22.211,-0.05,-0.06,-0.20,0.22
22.221,-0.02,-0.05,0.05,0.08
22.231,0.06,-0.06,0.23,0.25
22.241,0.10,-0.01,0.26,0.28
22.251,0.09,0.01,0.15,0.17
22.261,0.09,0.03,0.01,0.09
22.271,0.05,0.04,-0.02,0.07
22.281,0.04,0.03,0.01,0.05
22.291,0.00,0.02,0.02,0.03
22.301,0.00,0.02,-0.04,0.04
22.311,-0.02,0.01,-0.07,0.08
22.321,-0.04,0.02,-0.04,0.06
22.331,-0.04,0.04,0.01,0.06
22.341,-0.07,0.03,0.02,0.08
22.351,-0.05,0.03,-0.00,0.06
22.361,-0.03,0.01,0.02,0.04
22.371,-0.02,-0.00,0.05,0.05
22.381,0.01,-0.02,0.04,0.05
22.391,-0.01,-0.03,0.02,0.04
22.401,-0.02,-0.01,0.02,0.03
22.411,-0.04,-0.02,0.02,0.05
22.421,-0.01,-0.02,0.02,0.03
22.431,0.01,-0.03,-0.03,0.04
22.441,0.03,-0.01,0.04,0.05
22.451,0.02,-0.00,0.11,0.11
22.461,0.05,-0.01,-0.04,0.06
22.471,0.03,-0.01,-0.19,0.19
22.481,-0.01,-0.00,-0.17,0.17
22.491,-0.03,-0.00,-0.03,0.04
22.501,0.00,0.01,0.10,0.10
22.511,0.03,0.00,0.08,0.09
22.521,0.03,0.00,-0.02,0.04
22.531,0.03,-0.02,-0.05,0.06
22.541,0.02,-0.01,0.03,0.04
22.551,0.03,-0.03,0.09,0.10
22.561,0.04,-0.04,0.10,0.12
22.571,-0.00,-0.04,0.04,0.05
22.581,-0.04,-0.02,-0.00,0.04
22.591,-0.04,0.00,-0.01,0.04
22.601,-0.05,0.03,-0.04,0.07
22.611,-0.03,0.05,-0.04,0.07
22.621,-0.02,0.04,-0.03,0.06
22.631,0.00,0.03,-0.01,0.03
22.641,0.03,0.02,0.01,0.04
22.651,0.03,0.01,0.01,0.04
22.661,-0.01,0.01,0.02,0.02
22.671,-0.02,0.02,0.02,0.04
22.681,-0.02,0.03,0.01,0.04
22.691,-0.02,0.03,-0.01,0.03
22.701,-0.01,0.02,0.00,0.03
22.711,0.01,0.01,-0.00,0.01
22.721,0.02,0.01,-0.03,0.03
22.731,0.00,-0.01,-0.03,0.03
22.741,-0.00,-0.01,-0.02,0.02
22.751,-0.03,-0.02,-0.05,0.06
22.761,-0.03,-0.05,-0.05,0.08
22.771,-0.02,-0.03,-0.03,0.05
22.781,0.00,-0.04,-0.03,0.05
22.791,-0.01,-0.04,-0.02,0.05
22.801,-0.01,-0.01,-0.02,0.03
22.811,0.00,-0.02,-0.02,0.03
22.821,0.00,-0.03,0.01,0.03
22.831,-0.00,-0.02,0.02,0.03
22.841,-0.00,-0.01,0.02,0.02
22.851,0.02,0.00,-0.00,0.02
22.861,0.02,0.01,-0.03,0.03
22.871,0.02,-0.01,-0.03,0.04
22.881,-0.00,0.01,0.01,0.01
22.891,-0.01,0.01,0.06,0.06
22.901,0.04,0.04,0.09,0.11
22.911,0.06,0.07,0.04,0.10
22.921,0.02,0.08,-0.03,0.09
22.931,0.02,0.06,-0.11,0.12
22.941,-0.01,0.03,-0.15,0.16
22.951,-0.02,-0.01,-0.06,0.06
22.961,-0.02,-0.06,0.17,0.18
22.971,-0.00,-0.01,0.07,0.07
22.981,0.02,0.03,-0.08,0.09
22.991,-0.02,0.02,-0.24,0.25
23.001,-0.06,-0.03,-0.26,0.27
23.011,-0.05,-0.08,-0.08,0.13
23.021,0.02,-0.09,0.15,0.17
23.031,0.03,-0.07,0.25,0.26
23.041,0.06,-0.03,0.18,0.20
23.051,0.09,-0.03,0.07,0.11
23.061,0.09,-0.02,0.03,0.10
23.071,0.07,-0.02,0.05,0.09
23.081,0.06,-0.02,0.06,0.09
23.092,0.05,-0.01,0.01,0.05
23.101,0.02,-0.00,-0.05,0.05
23.112,-0.04,0.02,-0.07,0.08
23.122,-0.03,0.03,-0.04,0.06
23.132,-0.05,0.04,0.00,0.06
23.142,-0.03,0.04,0.02,0.05
23.152,0.01,0.03,0.05,0.06
23.162,0.02,0.05,0.07,0.09
23.172,0.08,0.04,0.10,0.13
23.182,0.12,0.04,0.15,0.20
23.192,0.20,0.05,0.21,0.30
23.202,0.27,0.05,0.29,0.40
23.212,0.36,0.03,0.37,0.52
23.222,0.42,0.01,0.35,0.55
23.232,0.54,-0.01,0.40,0.68
23.242,0.66,-0.05,0.54,0.85
23.252,0.75,-0.02,0.54,0.92
23.262,0.76,0.09,0.22,0.80
23.272,0.72,0.24,-0.27,0.81
23.282,0.58,0.26,-0.47,0.79
23.292,0.28,0.17,-0.21,0.39
23.302,-0.11,-0.01,0.18,0.21
23.312,-0.48,-0.33,0.34,0.68
23.322,-0.62,-0.58,0.27,0.89
23.332,-0.60,-0.64,0.07,0.88
23.342,-0.45,-0.54,-0.01,0.71
23.352,-0.22,-0.32,0.06,0.39
23.362,-0.04,-0.10,0.06,0.12
23.372,0.02,0.12,-0.19,0.22
23.382,-0.03,0.23,-0.49,0.54
23.392,-0.13,0.25,-0.65,0.71
23.402,-0.29,0.20,-0.63,0.72
23.412,-0.41,0.12,-0.40,0.58
23.422,-0.39,0.05,-0.04,0.40
23.432,-0.28,-0.00,0.17,0.33
23.442,-0.18,-0.05,0.21,0.29
23.452,-0.17,-0.10,0.18,0.27
23.462,-0.18,-0.14,0.07,0.24
23.472,-0.10,-0.13,-0.09,0.19
23.482,-0.02,-0.06,-0.13,0.15
23.492,-0.01,-0.03,-0.06,0.07
23.502,-0.07,-0.03,0.02,0.08
23.512,-0.15,-0.01,0.09,0.17
23.522,-0.24,-0.01,0.11,0.27
23.532,-0.28,0.01,0.01,0.28
23.542,-0.28,0.04,-0.15,0.32
23.552,-0.21,0.10,-0.22,0.32
23.562,-0.09,0.13,-0.08,0.18
23.572,0.04,0.11,0.06,0.14
23.582,0.17,0.11,0.12,0.23
23.592,0.18,0.08,0.13,0.24
23.602,0.07,0.07,0.06,0.12
23.612,-0.08,0.07,-0.09,0.14
23.622,-0.19,0.07,-0.24,0.31
23.632,-0.12,0.08,-0.21,0.25
23.642,0.03,0.05,0.05,0.08
23.652,0.14,0.02,0.16,0.22
23.662,0.16,-0.01,0.11,0.20
23.672,0.10,0.01,-0.01,0.10
23.682,-0.06,0.06,-0.11,0.14
23.692,-0.20,0.09,-0.16,0.27
23.702,-0.26,0.09,-0.25,0.37
23.712,-0.22,0.05,-0.24,0.33
23.722,-0.15,-0.02,-0.06,0.17
23.732,-0.16,-0.05,-0.01,0.16
23.742,-0.16,-0.03,-0.15,0.23
23.752,-0.16,0.01,-0.31,0.35
23.762,-0.17,0.08,-0.34,0.39
23.772,-0.18,0.16,-0.41,0.48
23.782,-0.13,0.10,-0.25,0.30
23.792,-0.08,-0.02,0.13,0.15
23.802,-0.11,-0.18,-0.00,0.21
23.812,-0.19,-0.24,-0.24,0.39
23.822,-0.25,-0.28,-0.40,0.54
23.832,-0.30,-0.22,-0.43,0.57
23.842,-0.27,-0.07,-0.33,0.44
23.852,-0.20,0.04,-0.12,0.24
23.862,-0.12,0.06,0.06,0.15
23.872,0.07,-0.02,0.11,0.13
23.882,0.24,-0.19,0.20,0.37
23.892,0.32,-0.37,0.28,0.57
23.902,0.36,-0.47,0.23,0.64
23.912,0.39,-0.43,0.06,0.58
23.922,0.27,-0.37,-0.16,0.48
23.932,-0.03,-0.33,-0.22,0.40
23.942,-0.30,-0.27,-0.12,0.42
23.952,-0.32,-0.09,0.06,0.34
23.962,-0.16,0.14,0.16,0.27
23.972,0.02,0.32,0.17,0.36
23.982,0.13,0.35,0.09,0.39
23.992,0.15,0.29,-0.11,0.34
24.002,0.08,0.20,-0.51,0.55
24.012,-0.08,0.16,-0.82,0.84
24.022,-0.25,0.13,-0.67,0.73
24.032,-0.39,0.08,-0.09,0.41
24.042,-0.40,0.06,0.46,0.61
24.052,-0.35,0.10,0.65,0.74
24.062,-0.27,0.22,0.50,0.61
24.072,-0.17,0.37,0.15,0.43
24.082,-0.03,0.49,-0.17,0.51
24.092,0.05,0.54,-0.28,0.61
24.102,0.07,0.50,-0.20,0.54
24.112,0.06,0.32,-0.10,0.33
24.122,0.01,0.10,-0.24,0.26
24.132,-0.10,-0.01,-0.50,0.51
24.142,-0.20,-0.05,-0.61,0.64
24.152,-0.27,-0.05,-0.40,0.49
24.162,-0.23,-0.05,0.09,0.25
24.172,-0.10,-0.03,0.54,0.55
24.182,0.13,-0.03,0.70,0.71
24.192,0.42,-0.07,0.56,0.71
24.203,0.69,-0.13,0.28,0.75
24.213,0.75,-0.17,0.01,0.77
24.223,0.64,-0.23,-0.15,0.69
24.233,0.46,-0.25,-0.17,0.55
24.243,0.37,-0.19,-0.10,0.43
24.253,0.33,-0.05,0.09,0.35
24.263,0.32,0.06,0.19,0.38
24.273,0.29,0.13,0.20,0.38
24.283,0.25,0.12,0.18,0.34
24.293,0.18,0.04,0.17,0.25
24.303,0.12,-0.14,0.21,0.28
24.313,0.03,-0.31,0.26,0.40
24.323,-0.03,-0.44,0.20,0.48
24.333,-0.06,-0.46,0.08,0.47
24.343,-0.06,-0.43,0.01,0.44
24.353,-0.14,-0.34,-0.07,0.37
24.363,-0.22,-0.21,-0.06,0.31
24.373,-0.18,-0.14,-0.14,0.27
24.383,0.08,-0.34,-0.46,0.58
24.393,-0.01,-0.32,0.38,0.50
24.403,-0.02,-0.07,0.67,0.67
24.413,0.03,0.29,0.36,0.46
24.423,-0.08,0.52,0.16,0.55
24.433,-0.15,0.60,0.04,0.62
24.443,-0.16,0.54,0.06,0.56
24.453,-0.08,0.36,0.10,0.38
24.463,0.06,0.15,0.10,0.19
24.473,0.22,-0.09,-0.02,0.24
24.483,0.44,-0.22,-0.13,0.51
24.493,0.56,-0.21,-0.15,0.62
24.503,0.60,-0.06,-0.08,0.60
24.513,0.28,-0.04,0.13,0.31
24.523,0.01,-0.02,0.10,0.11
24.533,-0.15,0.01,0.03,0.15
24.543,-0.20,0.07,-0.01,0.21
24.553,-0.17,0.15,-0.10,0.24
24.563,-0.10,0.19,-0.08,0.23
24.573,-0.01,0.20,-0.01,0.20
24.583,0.04,0.09,-0.02,0.11
24.593,0.13,0.00,-0.03,0.14
24.603,0.20,-0.09,0.04,0.22
24.613,0.23,-0.12,0.12,0.29
24.623,0.18,-0.17,0.16,0.30
24.633,0.06,-0.20,0.08,0.22
24.643,-0.07,-0.21,0.02,0.23
24.653,-0.04,-0.11,0.02,0.12
24.663,0.08,0.08,-0.02,0.11
24.673,0.10,0.27,-0.06,0.29
24.683,-0.10,0.30,-0.00,0.32
24.693,-0.31,0.24,0.03,0.39
24.703,-0.35,0.15,-0.03,0.38
24.713,-0.28,0.04,-0.08,0.30
24.723,-0.15,-0.10,-0.09,0.20
24.733,0.01,-0.17,-0.04,0.17
24.743,0.17,-0.20,0.02,0.26
24.753,0.18,-0.19,0.02,0.26
24.763,0.16,-0.12,-0.00,0.20
24.773,0.05,-0.08,0.02,0.10
24.783,-0.04,-0.01,0.06,0.07
24.793,-0.04,0.11,0.06,0.13
24.803,-0.05,0.19,0.07,0.21
24.813,-0.10,0.17,0.06,0.21
24.823,-0.13,0.13,0.05,0.19
24.833,-0.04,0.04,-0.01,0.06
24.843,0.08,-0.03,-0.02,0.09
24.853,0.12,-0.22,0.23,0.34
24.863,0.01,-0.25,-0.03,0.25
24.873,0.04,-0.23,-0.26,0.35
24.883,0.18,-0.13,-0.18,0.29
24.893,0.37,0.04,0.12,0.39
24.903,0.43,0.21,0.12,0.49
24.913,0.32,0.25,-0.04,0.41
24.923,-0.07,0.16,-0.11,0.21
24.933,-0.43,0.00,-0.13,0.45
24.943,-0.49,-0.15,-0.13,0.53
24.953,-0.24,-0.25,-0.07,0.36
24.963,-0.06,0.08,0.05,0.12
24.973,0.12,0.21,0.16,0.29
