time,ax,ay,az,atotal
0.000,0.01,-0.06,-0.11,0.13
0.010,0.05,-0.08,-0.13,0.17
0.020,0.06,0.01,-0.10,0.12
0.030,0.06,-0.01,0.06,0.08
0.040,0.02,0.01,0.00,0.03
0.050,-0.08,0.12,-0.14,0.20
0.060,-0.14,0.16,-0.15,0.26
0.070,-0.16,0.22,-0.09,0.29
0.080,-0.23,0.21,0.05,0.31
0.090,-0.20,0.17,0.05,0.27
0.100,-0.14,0.18,-0.03,0.23
0.110,-0.13,0.11,-0.05,0.18
0.120,-0.16,0.13,-0.11,0.23
0.130,-0.13,0.14,-0.08,0.20
0.140,-0.15,0.07,-0.03,0.17
0.150,-0.25,0.03,-0.17,0.31
0.160,-0.39,0.01,-0.26,0.47
0.170,-0.44,-0.04,-0.15,0.47
0.180,-0.45,-0.06,0.06,0.46
0.190,-0.42,0.00,-0.02,0.42
0.200,-0.30,-0.06,-0.15,0.34
0.210,-0.10,-0.11,-0.07,0.16
0.220,0.02,0.03,0.11,0.11
0.230,-0.18,-0.02,0.21,0.28
0.240,0.04,-0.01,0.02,0.05
0.250,-0.06,-0.03,-0.04,0.08
0.260,-0.05,-0.04,0.03,0.07
0.270,-0.10,0.02,0.11,0.15
0.280,-0.08,0.08,0.24,0.26
0.290,0.10,0.04,0.33,0.34
0.300,0.09,-0.04,0.28,0.30
0.310,0.02,-0.17,0.19,0.26
0.320,-0.03,-0.34,0.03,0.34
0.330,-0.19,-0.43,-0.15,0.49
0.340,-0.36,-0.46,-0.35,0.68
0.350,-0.35,-0.35,-0.41,0.64
0.360,-0.35,-0.15,-0.34,0.51
0.370,-0.44,0.04,-0.29,0.52
0.380,-0.32,0.17,-0.11,0.38
0.390,-0.21,0.29,0.10,0.37
0.400,0.22,0.54,0.20,0.62
0.410,0.13,-0.02,0.34,0.37
0.420,0.20,0.11,-0.07,0.24
0.430,0.14,0.08,-0.07,0.18
0.440,-0.03,-0.18,0.02,0.18
0.450,0.07,-0.30,-0.31,0.44
0.460,0.01,-0.41,-0.27,0.49
0.470,-0.09,-0.43,-0.24,0.50
0.481,-0.12,-0.34,-0.24,0.43
0.490,-0.16,-0.18,-0.23,0.34
0.501,-0.27,-0.01,-0.10,0.29
0.510,-0.27,0.03,0.10,0.29
0.520,-0.23,-0.03,0.11,0.25
0.530,-0.13,0.05,-0.01,0.14
0.540,-0.06,0.08,0.03,0.10
0.550,-0.16,0.10,0.08,0.20
0.560,-0.22,0.09,0.09,0.26
0.570,-0.31,0.08,0.06,0.33
0.580,-0.37,0.06,-0.00,0.38
0.590,-0.28,0.02,-0.02,0.28
0.600,-0.17,-0.02,0.07,0.19
0.610,-0.13,-0.03,0.06,0.15
0.620,-0.08,0.00,0.03,0.09
0.630,-0.04,-0.01,0.03,0.05
0.640,-0.03,-0.05,0.03,0.06
0.650,-0.11,0.05,0.04,0.13
0.661,-0.09,0.07,0.04,0.12
0.671,-0.10,0.11,0.05,0.16
0.681,-0.07,0.04,0.08,0.12
0.690,-0.08,-0.05,0.03,0.10
0.700,-0.09,-0.06,-0.07,0.13
0.710,-0.14,-0.09,-0.10,0.20
0.721,-0.24,-0.12,-0.10,0.28
0.731,-0.24,-0.17,-0.14,0.33
0.741,-0.13,-0.23,-0.23,0.35
0.751,-0.08,-0.19,-0.23,0.31
0.761,-0.02,-0.11,-0.12,0.16
0.771,0.02,-0.01,0.05,0.06
0.781,-0.03,0.07,0.17,0.19
0.791,0.00,0.07,0.16,0.18
0.801,-0.15,0.07,0.12,0.20
0.811,-0.25,0.10,0.18,0.32
0.820,-0.23,0.13,0.30,0.40
0.831,-0.26,0.12,0.29,0.41
0.841,-0.22,0.05,0.17,0.28
0.851,-0.18,0.02,0.06,0.19
0.861,-0.17,0.05,0.04,0.18
0.871,-0.15,0.03,0.10,0.19
0.881,-0.15,0.00,0.01,0.15
0.891,-0.17,-0.03,-0.09,0.20
0.901,-0.18,-0.11,-0.15,0.26
0.911,-0.14,-0.15,-0.18,0.28
0.921,-0.12,-0.05,-0.12,0.18
0.931,-0.17,-0.03,-0.06,0.19
0.941,-0.27,0.02,-0.00,0.27
0.951,-0.27,0.08,0.05,0.28
0.961,-0.19,0.07,0.05,0.21
0.971,-0.13,0.03,0.02,0.13
0.981,0.00,-0.03,-0.02,0.04
0.991,0.10,-0.05,0.03,0.12
1.001,0.03,-0.03,-0.01,0.05
1.011,-0.07,-0.03,-0.15,0.17
1.021,-0.24,-0.04,-0.17,0.30
1.031,-0.25,-0.09,-0.11,0.29
1.041,-0.37,-0.09,-0.09,0.39
1.051,-0.43,-0.09,-0.13,0.46
1.061,-0.46,-0.15,-0.15,0.51
1.071,-0.35,-0.12,-0.14,0.40
1.081,-0.28,-0.06,-0.10,0.31
1.091,-0.26,-0.06,-0.08,0.28
1.101,-0.18,-0.11,-0.15,0.26
1.111,-0.06,-0.12,-0.16,0.21
1.121,0.08,-0.16,-0.11,0.21
1.131,0.10,-0.22,-0.20,0.32
1.141,0.03,-0.23,-0.26,0.35
1.151,0.01,-0.22,-0.26,0.34
1.161,-0.03,-0.19,-0.21,0.28
1.171,-0.01,-0.14,-0.20,0.24
1.181,-0.00,-0.13,-0.15,0.20
1.191,0.19,-0.06,0.11,0.22
1.201,0.19,0.08,0.39,0.44
1.211,0.13,0.13,0.44,0.48
1.221,0.19,0.13,0.33,0.40
1.231,0.28,0.14,0.25,0.40
1.241,0.34,0.15,0.34,0.51
1.251,0.26,0.17,0.39,0.50
1.261,0.01,0.21,0.25,0.33
1.271,-0.11,0.21,0.22,0.32
1.281,-0.19,0.16,0.33,0.41
1.291,-0.12,0.14,0.31,0.36
1.301,-0.10,0.19,0.26,0.33
1.311,-0.27,0.17,0.16,0.36
1.321,-0.21,0.13,0.01,0.25
1.331,-0.08,0.07,0.02,0.10
1.341,0.07,0.03,0.03,0.08
1.351,-0.03,0.04,-0.14,0.15
1.361,-0.10,0.04,-0.26,0.28
1.371,-0.23,0.02,-0.15,0.28
1.381,-0.22,-0.00,-0.01,0.22
1.391,-0.13,0.07,0.01,0.15
1.401,-0.16,0.05,-0.03,0.17
1.411,-0.14,0.00,-0.04,0.15
1.421,-0.11,-0.03,-0.16,0.20
1.431,-0.05,-0.10,-0.23,0.25
1.441,-0.02,-0.15,-0.21,0.25
1.451,-0.10,-0.13,-0.14,0.22
1.461,-0.18,-0.10,-0.11,0.23
1.471,-0.26,-0.06,-0.10,0.29
1.481,-0.27,-0.04,-0.01,0.28
1.491,-0.21,0.04,0.13,0.25
1.501,-0.12,0.06,0.23,0.26
1.511,0.08,0.01,0.17,0.19
1.521,0.07,-0.12,0.01,0.14
1.531,0.05,-0.20,-0.12,0.23
1.541,0.05,-0.16,-0.13,0.21
1.551,0.03,-0.11,-0.06,0.13
1.561,0.08,-0.14,0.06,0.18
1.571,0.05,-0.08,0.08,0.13
1.581,-0.12,-0.10,0.04,0.16
1.591,-0.11,-0.02,0.02,0.12
1.601,-0.08,0.14,0.17,0.24
1.611,-0.06,0.16,0.32,0.36
1.621,-0.00,0.17,0.17,0.24
1.631,-0.02,0.14,-0.01,0.14
1.641,-0.01,-0.00,-0.07,0.07
1.651,-0.09,-0.05,-0.16,0.18
1.661,-0.10,-0.04,-0.21,0.24
1.671,-0.13,-0.00,-0.09,0.16
1.681,-0.07,0.29,0.03,0.30
1.691,-0.15,0.31,0.08,0.35
1.701,-0.12,0.17,-0.01,0.21
1.711,-0.08,0.05,-0.21,0.23
1.721,-0.04,-0.04,-0.31,0.32
1.731,-0.02,-0.08,-0.25,0.26
1.741,-0.04,-0.09,-0.22,0.24
1.751,-0.12,-0.18,-0.25,0.33
1.761,-0.08,-0.31,-0.37,0.49
1.771,-0.10,-0.35,-0.36,0.51
1.781,-0.11,-0.28,-0.24,0.38
1.791,-0.06,-0.29,-0.09,0.31
1.801,-0.04,-0.24,-0.06,0.25
1.811,0.04,-0.15,-0.06,0.16
1.821,-0.03,-0.18,0.00,0.18
1.831,-0.21,-0.16,-0.05,0.27
1.841,-0.25,-0.20,-0.06,0.33
1.851,-0.21,-0.26,0.00,0.34
1.861,-0.19,-0.21,0.03,0.29
1.871,-0.10,-0.25,-0.00,0.26
1.881,-0.03,-0.26,-0.04,0.27
1.891,-0.02,-0.25,-0.01,0.26
1.901,-0.02,-0.20,-0.01,0.20
1.911,-0.08,-0.10,-0.03,0.13
1.921,-0.14,-0.07,-0.09,0.18
1.931,-0.19,-0.08,-0.14,0.25
1.941,-0.24,-0.02,-0.10,0.26
1.951,-0.25,0.03,-0.09,0.27
1.961,-0.24,-0.06,-0.12,0.27
1.971,-0.21,-0.02,-0.27,0.35
1.981,-0.22,0.08,-0.24,0.34
1.991,-0.16,0.05,-0.09,0.19
2.001,-0.10,0.06,-0.06,0.14
2.011,-0.12,0.09,-0.05,0.16
2.021,-0.08,0.07,-0.08,0.13
2.031,-0.13,0.04,-0.17,0.21
2.041,-0.16,-0.04,-0.31,0.35
2.051,-0.05,-0.08,-0.28,0.30
2.061,0.00,-0.00,-0.10,0.10
2.072,0.02,0.07,-0.03,0.08
2.082,-0.00,0.02,-0.04,0.05
2.091,-0.07,-0.01,-0.03,0.07
2.102,-0.09,-0.00,-0.02,0.10
2.112,-0.09,-0.01,0.04,0.10
2.122,-0.06,-0.04,0.04,0.08
2.131,-0.14,-0.09,-0.01,0.17
2.142,-0.28,-0.05,0.04,0.28
2.152,-0.26,0.00,0.08,0.28
2.162,-0.22,0.01,0.07,0.23
2.172,-0.21,-0.00,0.01,0.21
2.182,-0.19,-0.01,0.04,0.19
2.192,-0.12,-0.03,0.10,0.16
2.202,-0.14,0.03,0.11,0.18
2.212,-0.07,0.03,0.07,0.10
2.222,0.05,-0.04,-0.02,0.07
2.232,-0.01,-0.01,-0.10,0.10
2.242,-0.10,0.08,0.02,0.13
2.252,-0.05,0.16,0.15,0.23
2.262,0.00,0.21,0.18,0.28
2.272,0.06,0.13,0.11,0.18
2.282,0.08,0.01,-0.04,0.10
2.292,-0.03,-0.01,-0.11,0.11
2.302,-0.10,0.00,-0.06,0.12
2.312,-0.17,0.00,-0.06,0.18
2.322,-0.16,0.03,-0.16,0.23
2.332,-0.18,-0.00,-0.19,0.26
2.342,-0.17,-0.04,-0.16,0.23
2.352,-0.14,-0.01,-0.09,0.17
2.362,-0.09,0.00,-0.02,0.09
2.372,-0.07,0.02,0.00,0.07
2.382,-0.06,-0.00,-0.06,0.08
2.392,-0.08,-0.04,-0.08,0.12
2.402,-0.10,-0.04,-0.04,0.12
2.412,-0.13,-0.03,-0.05,0.14
2.422,-0.14,-0.00,-0.05,0.15
2.432,-0.19,0.01,-0.05,0.20
2.442,-0.29,0.04,-0.05,0.30
2.452,-0.28,0.06,-0.08,0.29
2.462,-0.33,0.05,-0.00,0.34
2.472,-0.24,0.00,0.06,0.25
2.482,-0.17,-0.04,-0.01,0.18
2.492,-0.10,-0.07,-0.05,0.13
2.502,-0.08,-0.09,-0.07,0.14
2.512,0.07,-0.10,-0.11,0.16
2.522,0.03,-0.06,-0.02,0.07
2.532,0.03,0.02,0.05,0.06
2.542,0.01,0.06,0.11,0.12
2.552,-0.10,0.13,0.15,0.22
2.562,-0.11,0.13,0.17,0.24
2.572,-0.09,0.13,0.24,0.28
2.582,-0.02,0.11,0.18,0.21
2.592,-0.06,0.03,0.07,0.10
2.602,0.02,-0.02,-0.00,0.03
2.612,0.06,-0.02,-0.00,0.06
2.622,0.12,-0.05,-0.01,0.13
2.632,0.03,-0.05,-0.02,0.06
2.642,-0.05,0.00,-0.03,0.05
2.652,0.00,-0.05,-0.05,0.07
2.662,0.02,-0.05,-0.13,0.14
2.672,0.03,-0.05,-0.07,0.09
2.682,0.01,-0.04,-0.07,0.09
2.692,-0.04,-0.06,-0.15,0.17
2.702,-0.11,-0.02,-0.16,0.19
2.712,-0.14,-0.04,-0.18,0.23
2.722,-0.13,-0.08,-0.25,0.29
2.732,-0.10,-0.04,-0.21,0.24
2.742,-0.13,-0.00,-0.13,0.19
2.752,-0.16,0.06,-0.06,0.17
2.762,-0.22,0.07,-0.08,0.25
2.772,-0.28,0.04,-0.12,0.31
2.782,-0.23,-0.02,-0.15,0.28
2.792,-0.16,-0.03,-0.13,0.20
2.802,-0.07,-0.06,-0.16,0.18
2.812,-0.06,-0.06,-0.18,0.20
2.822,-0.11,-0.03,-0.13,0.17
2.832,-0.14,-0.01,-0.05,0.15
2.842,-0.14,-0.04,-0.05,0.15
2.852,-0.18,-0.02,-0.02,0.19
2.862,-0.23,-0.01,-0.00,0.23
2.872,-0.15,0.02,0.02,0.15
2.882,-0.11,0.04,0.10,0.15
2.892,-0.10,0.00,0.11,0.15
2.902,-0.05,-0.07,0.05,0.11
2.912,-0.05,-0.08,0.01,0.10
2.922,-0.07,-0.08,0.06,0.13
2.932,-0.03,-0.03,0.17,0.17
2.942,-0.01,0.03,0.23,0.23
2.952,0.00,0.01,0.20,0.20
2.962,0.01,-0.02,0.16,0.16
2.972,-0.04,0.01,0.08,0.09
2.982,-0.09,0.01,-0.00,0.09
2.992,-0.08,0.00,0.01,0.08
3.002,-0.12,-0.02,-0.02,0.12
3.012,-0.12,-0.04,-0.06,0.13
3.022,-0.07,-0.07,-0.09,0.13
3.032,-0.11,-0.04,-0.11,0.16
3.042,-0.13,-0.00,-0.08,0.15
3.052,-0.16,-0.03,-0.09,0.19
3.062,-0.08,-0.00,-0.07,0.11
3.072,-0.05,0.01,0.00,0.05
3.082,-0.10,0.02,0.02,0.11
3.092,-0.14,0.01,-0.00,0.14
3.102,-0.14,-0.05,-0.12,0.19
3.112,-0.14,-0.10,-0.24,0.30
3.122,-0.12,-0.05,-0.18,0.22
3.132,-0.16,0.02,-0.04,0.17
3.142,-0.13,0.06,0.02,0.14
3.152,-0.09,0.03,-0.05,0.11
3.162,-0.07,0.03,-0.10,0.12
3.172,-0.07,-0.00,-0.09,0.11
3.182,-0.15,-0.00,-0.06,0.17
3.192,-0.17,-0.02,-0.07,0.18
3.202,-0.18,-0.00,0.02,0.18
3.212,-0.15,0.01,0.07,0.17
3.222,-0.10,-0.02,-0.03,0.11
3.232,-0.01,-0.06,-0.09,0.11
3.242,0.04,-0.07,-0.08,0.12
3.252,0.02,-0.04,-0.04,0.06
3.262,0.02,-0.03,-0.04,0.06
3.272,-0.00,0.00,-0.00,0.01
3.282,-0.07,0.01,0.04,0.08
3.292,-0.10,-0.01,0.02,0.11
3.302,-0.15,-0.02,-0.02,0.15
3.312,-0.12,-0.02,-0.02,0.12
3.323,-0.08,0.01,-0.03,0.09
3.332,-0.05,-0.02,-0.04,0.07
3.342,-0.03,-0.02,-0.04,0.05
3.352,-0.03,0.01,0.04,0.06
3.362,-0.15,0.05,0.07,0.17
3.372,-0.19,0.01,0.07,0.20
3.382,-0.19,-0.03,0.02,0.19
3.392,-0.12,-0.07,-0.07,0.16
3.403,-0.10,-0.09,-0.16,0.21
3.413,-0.11,-0.03,-0.14,0.18
3.422,-0.12,-0.01,-0.07,0.14
3.432,-0.10,0.00,-0.08,0.13
3.442,-0.08,0.00,-0.05,0.09
3.452,-0.09,0.01,0.03,0.09
3.462,-0.10,0.01,0.01,0.11
3.472,-0.07,0.02,-0.04,0.08
3.482,-0.08,0.01,0.01,0.08
3.492,-0.14,0.02,-0.01,0.15
3.502,-0.09,0.02,-0.03,0.10
3.512,-0.06,0.01,-0.02,0.07
3.522,-0.04,-0.01,0.01,0.04
3.532,-0.10,-0.04,0.01,0.11
3.542,-0.12,-0.06,-0.02,0.14
3.553,-0.15,-0.06,0.03,0.16
3.563,-0.09,-0.09,-0.00,0.13
3.573,-0.06,-0.10,-0.05,0.13
3.582,-0.09,-0.08,0.00,0.12
3.593,-0.09,-0.08,-0.02,0.12
3.603,-0.13,-0.01,-0.05,0.14
3.613,-0.16,0.01,-0.04,0.17
3.623,-0.19,0.02,0.02,0.19
3.633,-0.13,0.02,-0.01,0.13
3.643,-0.09,0.03,-0.03,0.10
3.653,-0.00,0.03,-0.04,0.05
3.663,-0.03,0.04,-0.01,0.05
3.673,-0.04,0.06,-0.04,0.08
3.683,-0.01,0.03,-0.13,0.13
3.693,-0.09,0.03,-0.16,0.19
3.703,-0.14,0.07,-0.13,0.21
3.713,-0.16,0.11,-0.07,0.21
3.723,-0.14,0.13,-0.02,0.19
3.733,-0.09,0.08,-0.07,0.14
3.743,-0.07,0.01,-0.11,0.13
3.753,-0.12,0.01,-0.11,0.16
3.763,-0.16,-0.00,-0.10,0.19
3.773,-0.18,0.02,-0.10,0.20
3.783,-0.15,0.02,-0.10,0.18
3.793,-0.09,-0.04,-0.16,0.18
3.803,-0.10,-0.01,-0.12,0.16
3.813,-0.08,-0.02,0.01,0.08
3.823,-0.07,0.00,0.06,0.10
3.833,-0.07,0.02,0.04,0.08
3.843,-0.10,-0.05,-0.05,0.12
3.853,-0.06,-0.11,-0.10,0.16
3.863,-0.04,-0.09,0.01,0.10
3.873,-0.00,-0.06,0.15,0.16
3.883,-0.03,-0.06,0.16,0.18
3.893,-0.06,-0.07,0.07,0.12
3.903,-0.05,-0.09,-0.00,0.10
3.913,-0.06,-0.08,-0.03,0.11
3.923,-0.09,-0.02,-0.03,0.09
3.933,-0.10,-0.02,-0.05,0.11
3.943,-0.13,0.01,-0.08,0.15
3.953,-0.14,0.02,-0.04,0.15
3.963,-0.12,0.01,-0.05,0.13
3.973,-0.12,-0.01,-0.08,0.15
3.983,-0.13,-0.03,-0.08,0.16
3.990,-0.12,-0.02,-0.18,0.22
3.999,-0.08,-0.04,-0.24,0.25
4.009,0.02,-0.05,-0.20,0.20
4.019,0.02,-0.02,-0.16,0.16
4.029,0.02,0.01,-0.16,0.16
4.039,-0.05,0.05,-0.10,0.12
4.049,-0.10,0.07,-0.05,0.13
4.059,-0.13,0.08,-0.08,0.17
4.069,-0.08,0.04,-0.12,0.15
4.079,-0.05,0.03,-0.11,0.13
4.089,-0.07,0.03,-0.10,0.12
4.099,-0.08,0.06,-0.02,0.10
4.109,-0.08,0.07,0.00,0.11
4.119,-0.08,0.05,-0.03,0.10
4.129,-0.08,0.02,-0.04,0.09
4.139,-0.07,0.00,-0.01,0.07
4.149,-0.08,-0.00,0.01,0.08
4.159,-0.12,0.03,0.01,0.13
4.169,-0.20,0.05,0.00,0.20
4.179,-0.23,0.06,0.05,0.24
4.189,-0.22,0.03,0.07,0.23
4.199,-0.15,0.02,0.07,0.17
4.209,-0.09,-0.02,0.06,0.11
4.219,-0.06,-0.02,0.06,0.09
4.229,-0.05,0.01,0.05,0.07
4.239,-0.08,0.02,0.07,0.11
4.249,-0.09,-0.01,0.08,0.12
4.259,-0.08,0.01,0.08,0.11
4.269,-0.07,-0.00,0.09,0.12
4.279,-0.06,-0.01,0.08,0.10
4.289,-0.04,-0.02,0.07,0.09
4.299,-0.05,-0.02,0.03,0.06
4.309,-0.05,-0.02,-0.00,0.05
4.319,-0.03,-0.03,0.03,0.05
4.330,-0.07,-0.01,0.02,0.07
4.339,-0.13,0.00,0.00,0.13
4.349,-0.17,-0.00,-0.03,0.17
4.361,-0.14,-0.05,-0.09,0.18
4.371,-0.13,-0.05,-0.06,0.15
4.381,-0.14,-0.02,-0.03,0.15
4.391,-0.13,-0.03,-0.09,0.16
4.401,-0.12,-0.04,-0.13,0.18
4.411,-0.08,-0.02,-0.11,0.14
4.421,-0.11,-0.01,-0.12,0.16
4.431,-0.12,-0.00,-0.11,0.16
4.441,-0.14,0.02,-0.06,0.15
4.451,-0.12,0.00,-0.13,0.17
4.461,-0.12,-0.01,-0.14,0.19
4.471,-0.14,-0.01,-0.13,0.19
4.481,-0.10,-0.02,-0.15,0.18
4.491,-0.07,-0.01,-0.15,0.17
4.501,-0.08,-0.02,-0.11,0.14
4.511,-0.14,-0.00,-0.10,0.17
4.521,-0.06,-0.03,-0.12,0.14
4.531,-0.03,-0.02,-0.12,0.12
4.541,-0.06,0.01,-0.06,0.09
4.551,-0.09,0.03,0.00,0.10
4.561,-0.14,0.01,0.05,0.15
4.571,-0.13,0.02,0.04,0.14
4.581,-0.11,0.02,0.04,0.12
4.591,-0.12,-0.00,-0.01,0.12
4.601,-0.12,-0.00,-0.03,0.12
4.611,-0.12,-0.00,0.04,0.13
4.621,-0.15,-0.00,0.04,0.15
4.631,-0.11,-0.02,0.02,0.11
4.641,-0.08,0.00,0.02,0.08
4.651,-0.06,-0.01,0.01,0.07
4.661,-0.10,-0.00,0.03,0.11
4.671,-0.06,0.03,0.06,0.09
4.681,-0.09,0.03,0.08,0.13
4.691,-0.10,0.03,-0.03,0.11
4.701,-0.08,0.04,-0.09,0.13
4.711,-0.02,0.00,-0.13,0.13
4.721,-0.05,0.03,-0.15,0.16
4.731,-0.13,0.05,-0.11,0.17
4.741,-0.20,0.05,-0.10,0.23
4.751,-0.22,0.03,-0.09,0.24
4.761,-0.19,0.00,-0.07,0.20
4.771,-0.12,-0.01,-0.15,0.19
4.781,-0.08,-0.05,-0.23,0.25
4.791,-0.00,-0.06,-0.28,0.29
4.801,0.06,-0.06,-0.29,0.30
4.811,0.09,-0.01,-0.23,0.25
4.821,0.08,0.02,-0.18,0.20
4.831,0.01,0.06,-0.10,0.12
4.841,-0.09,0.10,-0.02,0.13
4.851,-0.15,0.10,0.06,0.19
4.861,-0.18,0.10,0.03,0.21
4.871,-0.16,0.09,0.08,0.20
4.881,-0.15,0.12,0.21,0.28
4.891,-0.11,0.09,0.19,0.24
4.901,-0.10,0.07,0.18,0.21
4.911,-0.13,0.05,0.22,0.26
4.921,-0.15,0.04,0.22,0.27
4.931,-0.20,-0.01,0.15,0.25
4.941,-0.17,-0.07,0.08,0.20
4.951,-0.13,-0.11,0.01,0.17
4.961,-0.10,-0.15,-0.03,0.18
4.971,-0.06,-0.15,-0.09,0.18
4.981,-0.09,-0.11,-0.10,0.18
4.991,-0.08,-0.10,-0.09,0.16
5.001,-0.05,-0.07,-0.05,0.10
5.011,-0.04,-0.09,-0.07,0.12
5.021,-0.01,-0.13,-0.17,0.21
5.031,0.00,-0.16,-0.29,0.33
5.041,0.05,-0.15,-0.26,0.30
5.051,0.03,-0.08,-0.15,0.17
5.061,-0.06,0.01,-0.09,0.11
5.071,-0.07,0.06,-0.06,0.12
5.081,-0.09,0.06,-0.05,0.12
5.091,-0.12,0.05,-0.09,0.16
5.101,-0.16,0.06,-0.14,0.22
5.111,-0.19,0.06,-0.11,0.23
5.121,-0.19,0.10,-0.08,0.23
5.131,-0.19,0.10,-0.04,0.22
5.141,-0.15,0.09,0.03,0.18
5.151,-0.10,0.04,-0.00,0.10
5.161,-0.05,0.03,-0.03,0.07
5.171,-0.05,0.03,0.02,0.06
5.181,-0.05,0.04,0.05,0.08
5.191,-0.06,0.04,0.03,0.08
5.201,-0.10,0.01,0.05,0.11
5.211,-0.08,0.01,0.06,0.10
5.221,-0.09,0.02,0.01,0.09
5.231,-0.10,0.02,0.00,0.10
5.241,-0.10,0.01,-0.02,0.10
5.251,-0.07,0.04,-0.05,0.09
5.261,-0.06,-0.00,-0.08,0.10
5.271,-0.02,0.00,-0.06,0.06
5.281,-0.01,0.01,-0.04,0.04
5.291,-0.01,0.01,-0.03,0.03
5.301,-0.01,0.01,-0.01,0.02
5.311,-0.11,-0.01,-0.01,0.11
5.321,-0.16,-0.03,-0.06,0.17
5.332,-0.19,0.00,-0.06,0.20
5.341,-0.11,-0.01,-0.06,0.13
5.351,-0.05,-0.05,-0.13,0.14
5.362,-0.02,-0.04,-0.13,0.14
5.371,0.00,-0.02,-0.08,0.08
5.382,-0.02,0.01,-0.00,0.02
5.391,-0.06,0.05,-0.01,0.08
5.401,-0.10,0.05,0.02,0.11
5.411,-0.11,-0.02,0.02,0.11
5.421,-0.08,-0.06,-0.06,0.12
5.432,-0.07,-0.06,-0.10,0.14
5.441,-0.03,-0.05,-0.10,0.11
5.452,-0.02,0.01,-0.10,0.10
5.462,-0.11,0.04,-0.11,0.16
5.471,-0.11,0.06,-0.07,0.15
5.481,-0.14,0.06,-0.05,0.17
5.491,-0.15,0.08,-0.06,0.18
5.502,-0.19,0.05,-0.00,0.19
5.511,-0.19,0.00,-0.08,0.21
5.521,-0.13,-0.04,-0.11,0.18
5.531,-0.15,-0.10,-0.12,0.21
5.541,-0.11,-0.08,-0.08,0.16
5.551,-0.14,-0.08,-0.02,0.16
5.561,-0.15,-0.07,-0.09,0.18
5.571,-0.05,-0.08,-0.11,0.15
5.582,-0.01,-0.04,-0.02,0.05
5.592,-0.04,-0.01,0.02,0.05
5.602,-0.11,0.03,0.11,0.16
5.612,-0.11,0.06,0.09,0.16
5.622,-0.11,0.02,0.08,0.14
5.632,-0.07,-0.01,0.08,0.11
5.642,-0.04,-0.02,0.05,0.07
5.652,-0.05,-0.04,0.02,0.07
5.662,-0.06,-0.03,0.02,0.07
5.672,-0.05,0.02,0.08,0.09
5.682,-0.08,0.01,0.03,0.09
5.692,-0.15,0.02,0.01,0.15
5.702,-0.26,0.02,0.03,0.26
5.712,-0.13,-0.00,0.06,0.14
5.722,0.02,0.00,0.02,0.03
5.732,0.13,0.01,-0.03,0.13
5.742,0.10,-0.02,-0.08,0.13
5.752,-0.01,0.01,-0.12,0.12
5.762,-0.10,0.05,-0.07,0.14
5.772,-0.17,0.08,-0.06,0.20
5.782,-0.21,0.12,-0.03,0.24
5.792,-0.22,0.11,0.01,0.25
5.802,-0.12,0.05,0.00,0.12
5.812,-0.01,0.01,-0.11,0.11
5.822,0.10,-0.00,-0.12,0.16
5.832,0.06,0.01,-0.05,0.08
5.842,-0.04,0.02,-0.03,0.05
5.852,-0.21,0.03,-0.01,0.21
5.862,-0.30,0.01,-0.06,0.30
5.872,-0.29,-0.03,-0.13,0.32
5.882,-0.29,-0.03,-0.06,0.30
5.892,-0.24,-0.05,-0.01,0.24
5.902,-0.23,-0.06,-0.04,0.24
5.912,-0.14,-0.08,-0.06,0.17
5.922,-0.02,-0.10,-0.06,0.12
5.932,0.01,-0.12,-0.15,0.19
5.942,-0.06,-0.10,-0.21,0.24
5.952,-0.12,-0.04,-0.17,0.21
5.962,-0.14,0.00,-0.10,0.17
5.972,-0.08,0.03,-0.08,0.12
5.982,-0.05,0.04,-0.02,0.07
5.992,-0.14,0.08,-0.01,0.16
6.002,-0.15,0.04,-0.05,0.17
6.012,-0.12,0.01,-0.15,0.19
6.022,-0.07,-0.01,-0.18,0.19
6.032,0.01,-0.02,-0.16,0.16
6.042,0.06,0.04,-0.11,0.13
6.052,0.03,0.05,-0.03,0.06
6.062,-0.07,0.06,0.08,0.12
6.072,-0.19,0.06,0.15,0.25
6.082,-0.28,0.04,0.13,0.31
6.092,-0.27,-0.03,0.11,0.29
6.102,-0.23,-0.11,0.02,0.26
6.112,-0.22,-0.17,-0.04,0.28
6.122,-0.14,-0.19,-0.01,0.23
6.132,-0.04,-0.14,0.06,0.16
6.142,0.04,-0.05,0.16,0.17
6.152,0.05,-0.02,0.17,0.18
6.162,0.01,-0.06,0.07,0.10
6.172,-0.03,-0.07,-0.05,0.09
6.182,-0.08,-0.05,-0.08,0.13
6.192,-0.16,-0.01,-0.10,0.19
6.202,-0.17,0.06,-0.08,0.19
6.212,-0.17,0.15,-0.05,0.24
6.222,-0.13,0.19,-0.02,0.23
6.232,-0.05,0.14,-0.03,0.15
6.242,-0.08,0.12,-0.11,0.18
6.252,-0.02,0.11,-0.17,0.20
6.262,0.12,0.09,-0.21,0.25
6.272,0.09,0.12,-0.22,0.27
6.282,0.01,0.14,-0.23,0.27
6.292,-0.09,0.16,-0.21,0.28
6.302,-0.16,0.16,-0.13,0.26
6.312,-0.21,0.17,-0.15,0.30
6.322,-0.25,0.16,-0.21,0.36
6.332,-0.28,0.14,-0.17,0.36
6.342,-0.23,0.14,-0.09,0.28
6.352,-0.14,0.11,-0.02,0.18
6.362,-0.11,0.09,0.03,0.15
6.372,-0.04,0.06,0.08,0.11
6.382,0.02,0.03,0.10,0.11
6.392,-0.00,0.03,0.11,0.11
6.402,-0.01,-0.06,0.10,0.12
6.412,0.02,-0.11,0.03,0.12
6.422,-0.01,-0.12,0.05,0.13
6.432,-0.07,-0.11,0.05,0.15
6.442,-0.10,-0.11,0.09,0.17
6.452,-0.14,-0.10,0.14,0.22
6.462,-0.11,-0.08,0.12,0.18
6.472,-0.12,-0.10,0.10,0.19
6.482,-0.13,-0.11,0.03,0.17
6.492,-0.15,-0.13,-0.01,0.20
6.502,-0.17,-0.11,-0.01,0.20
6.512,-0.12,-0.10,0.01,0.15
6.522,-0.11,-0.08,0.04,0.15
6.532,-0.11,-0.05,0.01,0.12
6.542,-0.14,0.00,0.04,0.15
6.552,-0.14,0.01,0.02,0.15
6.562,-0.15,0.02,-0.09,0.17
6.572,-0.13,-0.01,-0.13,0.18
6.582,-0.17,-0.04,-0.11,0.20
6.592,-0.18,-0.05,-0.14,0.24
6.602,-0.12,-0.05,-0.18,0.22
6.612,-0.07,-0.03,-0.17,0.19
6.622,-0.06,-0.04,-0.12,0.14
6.632,-0.05,0.01,-0.07,0.09
6.642,-0.02,0.01,-0.06,0.07
6.653,-0.03,-0.02,-0.09,0.10
6.662,-0.04,-0.03,-0.13,0.14
6.672,-0.04,-0.02,-0.11,0.12
6.682,-0.02,0.00,-0.04,0.04
6.692,-0.04,-0.00,-0.01,0.04
6.702,-0.08,-0.02,-0.04,0.09
6.713,-0.09,0.01,0.00,0.09
6.722,-0.12,0.04,0.06,0.14
6.732,-0.12,0.05,0.01,0.13
6.742,-0.11,0.02,-0.06,0.13
6.752,-0.09,-0.01,-0.07,0.11
6.762,-0.08,-0.01,-0.10,0.13
6.772,-0.06,-0.00,-0.11,0.13
6.782,-0.09,0.03,-0.07,0.12
6.792,-0.08,0.03,-0.01,0.08
6.802,-0.07,0.03,-0.03,0.08
6.812,-0.09,0.03,-0.11,0.15
6.823,-0.11,0.04,-0.16,0.20
6.832,-0.16,0.06,-0.13,0.21
6.843,-0.16,0.08,-0.05,0.18
6.853,-0.07,0.06,-0.05,0.11
6.862,-0.03,0.04,-0.08,0.09
6.873,-0.05,0.05,-0.10,0.12
6.882,-0.10,0.03,-0.12,0.16
6.892,-0.17,0.03,-0.11,0.21
6.903,-0.18,0.04,-0.11,0.21
6.913,-0.17,0.02,-0.11,0.20
6.922,-0.12,-0.00,-0.07,0.14
6.933,-0.10,-0.02,-0.10,0.15
6.942,-0.05,0.00,-0.09,0.10
6.953,-0.06,0.01,-0.01,0.06
6.963,-0.10,0.03,-0.00,0.10
6.973,-0.11,0.03,-0.02,0.12
6.983,-0.13,0.01,0.01,0.13
6.993,-0.15,-0.02,-0.00,0.15
7.003,-0.13,-0.03,-0.04,0.14
7.013,-0.10,-0.05,-0.03,0.12
7.023,-0.06,-0.01,0.00,0.06
7.033,-0.04,-0.02,0.04,0.06
7.043,-0.02,-0.01,0.02,0.03
7.053,-0.06,0.01,0.04,0.07
7.063,-0.12,0.02,0.05,0.13
7.073,-0.15,-0.01,0.01,0.15
7.083,-0.10,-0.06,-0.04,0.12
7.093,-0.08,-0.09,-0.12,0.17
7.103,-0.10,-0.10,-0.20,0.24
7.113,-0.11,-0.11,-0.19,0.25
7.123,-0.15,-0.09,-0.13,0.22
7.133,-0.12,-0.05,-0.08,0.15
7.143,-0.08,-0.03,-0.11,0.13
7.153,-0.11,-0.02,-0.09,0.15
7.163,-0.08,-0.03,-0.09,0.12
7.173,-0.07,-0.01,-0.14,0.16
7.183,-0.05,0.01,-0.12,0.13
7.193,-0.07,0.03,-0.03,0.08
7.203,-0.11,0.08,-0.01,0.14
7.213,-0.17,0.09,0.01,0.19
7.223,-0.16,0.07,0.07,0.19
7.233,-0.09,0.10,0.08,0.16
7.243,-0.10,0.09,0.13,0.19
7.253,-0.09,0.08,0.17,0.21
7.263,-0.07,0.06,0.17,0.19
7.273,-0.06,0.00,0.05,0.08
7.283,-0.06,-0.03,-0.06,0.09
7.293,-0.07,-0.05,-0.02,0.09
7.303,-0.09,-0.03,0.05,0.11
7.313,-0.10,-0.00,0.08,0.13
7.323,-0.13,0.00,0.02,0.14
7.333,-0.12,0.01,-0.06,0.13
7.343,-0.07,-0.00,-0.09,0.11
7.353,-0.10,0.02,-0.12,0.16
7.363,-0.15,0.03,-0.10,0.18
7.373,-0.17,0.02,-0.07,0.19
7.383,-0.12,0.02,-0.07,0.14
7.393,-0.06,-0.00,-0.08,0.10
7.403,-0.00,-0.04,-0.07,0.08
7.413,0.02,-0.05,-0.04,0.07
7.423,-0.02,-0.03,-0.07,0.08
7.433,-0.07,-0.02,-0.10,0.13
7.443,-0.12,0.02,-0.02,0.12
7.453,-0.15,0.04,0.03,0.16
7.463,-0.21,0.04,0.05,0.21
7.473,-0.22,0.04,0.05,0.22
7.483,-0.16,0.05,0.03,0.17
7.493,-0.09,0.01,0.04,0.10
7.503,-0.01,-0.02,-0.02,0.03
7.513,-0.01,-0.05,-0.05,0.07
7.523,-0.04,-0.07,0.00,0.08
7.533,-0.07,-0.04,0.03,0.08
7.543,-0.08,-0.00,0.05,0.09
7.553,-0.01,-0.02,0.03,0.04
7.563,-0.05,-0.01,0.02,0.05
7.573,-0.11,0.02,-0.01,0.11
7.583,-0.11,0.03,-0.07,0.13
7.593,-0.09,0.03,-0.09,0.13
7.603,-0.14,0.02,-0.13,0.20
7.613,-0.17,0.03,-0.13,0.22
7.623,-0.17,0.06,-0.10,0.20
7.633,-0.12,0.05,-0.10,0.16
7.643,-0.11,0.03,-0.17,0.20
7.653,-0.11,0.02,-0.16,0.19
7.663,-0.13,0.02,-0.12,0.18
7.673,-0.12,0.03,-0.20,0.23
7.683,-0.12,0.03,-0.16,0.20
7.693,-0.13,0.05,-0.05,0.15
7.703,-0.12,0.07,-0.02,0.14
7.713,-0.07,0.03,-0.02,0.08
7.723,-0.09,0.03,-0.02,0.09
7.733,-0.10,0.02,0.02,0.10
7.743,-0.06,0.01,0.01,0.07
7.753,-0.04,-0.02,-0.02,0.05
7.763,-0.03,-0.02,-0.02,0.04
7.773,-0.06,-0.01,-0.01,0.06
7.783,-0.03,-0.02,-0.05,0.07
7.793,-0.02,-0.01,-0.02,0.03
7.803,-0.06,-0.00,0.03,0.07
7.813,-0.10,0.03,0.06,0.12
7.823,-0.13,0.07,0.02,0.15
7.833,-0.14,0.05,-0.03,0.15
7.843,-0.17,0.02,-0.01,0.17
7.853,-0.17,0.03,0.04,0.17
7.863,-0.14,0.06,0.07,0.17
7.873,-0.12,0.06,0.09,0.16
7.883,-0.09,0.01,0.04,0.10
7.893,-0.10,-0.06,-0.08,0.14
7.903,-0.08,-0.08,-0.15,0.19
7.913,-0.04,-0.09,-0.13,0.16
7.923,-0.08,-0.06,-0.01,0.10
7.933,-0.16,-0.01,0.05,0.17
7.943,-0.17,0.03,0.06,0.19
7.953,-0.13,0.02,-0.02,0.13
7.963,-0.01,-0.02,-0.12,0.12
7.973,0.07,-0.06,-0.18,0.20
7.983,0.09,-0.07,-0.23,0.25
7.994,-0.01,-0.03,-0.14,0.14
8.002,-0.10,0.01,-0.06,0.12
8.012,-0.17,0.04,-0.01,0.17
8.022,-0.20,0.01,-0.02,0.20
8.032,-0.18,-0.02,-0.10,0.21
8.042,-0.13,-0.04,-0.19,0.24
8.052,-0.12,-0.02,-0.20,0.23
8.062,-0.07,0.03,-0.04,0.09
8.072,-0.05,0.06,0.03,0.08
8.082,-0.02,0.06,0.03,0.06
8.092,-0.02,0.03,0.01,0.04
8.102,-0.10,-0.02,-0.03,0.10
8.112,-0.09,-0.01,-0.10,0.13
8.122,-0.12,0.02,-0.11,0.16
8.132,-0.13,0.06,-0.04,0.15
8.142,-0.11,0.08,-0.00,0.14
8.152,-0.11,0.06,0.02,0.13
8.162,-0.15,0.01,0.00,0.15
8.172,-0.13,-0.05,-0.06,0.15
8.182,-0.08,-0.10,-0.14,0.19
8.192,-0.07,-0.12,-0.14,0.20
8.202,-0.06,-0.09,-0.07,0.13
8.212,-0.03,-0.05,-0.01,0.06
8.222,-0.04,-0.02,0.02,0.05
8.232,-0.09,0.00,0.04,0.10
8.242,-0.08,-0.01,0.03,0.09
8.252,-0.13,-0.00,0.03,0.14
8.262,-0.15,0.02,0.02,0.16
8.272,-0.11,0.07,0.02,0.13
8.282,-0.07,0.06,0.10,0.13
8.292,-0.06,0.05,0.13,0.15
8.302,-0.11,0.03,0.09,0.14
8.312,-0.15,-0.05,0.02,0.15
8.322,-0.17,-0.11,-0.01,0.20
8.332,-0.14,-0.17,-0.07,0.23
8.342,-0.10,-0.22,-0.11,0.27
8.352,-0.08,-0.23,-0.10,0.26
8.364,-0.06,-0.19,-0.14,0.24
8.374,-0.07,-0.14,-0.15,0.22
8.384,-0.08,-0.10,-0.16,0.21
8.394,-0.12,-0.04,-0.14,0.19
8.404,-0.13,0.01,-0.09,0.16
8.414,-0.09,0.07,-0.02,0.12
8.424,-0.05,0.15,-0.01,0.16
8.434,-0.04,0.17,-0.02,0.18
8.444,-0.07,0.19,-0.02,0.21
8.454,-0.10,0.21,-0.04,0.24
8.464,-0.10,0.22,-0.05,0.24
8.474,-0.10,0.23,0.00,0.25
8.484,-0.10,0.23,0.06,0.25
8.494,-0.06,0.19,0.03,0.20
8.504,-0.06,0.13,-0.01,0.14
8.514,-0.00,0.11,-0.02,0.11
8.524,0.00,0.09,-0.02,0.09
8.534,0.01,0.07,-0.03,0.08
8.544,0.01,0.03,-0.04,0.05
8.554,-0.04,-0.01,-0.08,0.09
8.564,-0.11,-0.02,-0.10,0.15
8.574,-0.16,-0.03,-0.08,0.18
8.584,-0.16,-0.03,-0.06,0.17
8.594,-0.16,-0.05,-0.03,0.17
8.604,-0.13,-0.05,-0.03,0.14
8.614,-0.07,-0.05,-0.00,0.09
8.624,-0.02,-0.09,-0.00,0.09
8.634,-0.07,-0.11,-0.10,0.16
8.644,-0.15,-0.09,-0.12,0.21
8.654,-0.18,-0.08,-0.07,0.21
8.664,-0.17,-0.04,-0.05,0.18
8.674,-0.16,-0.01,-0.03,0.16
8.684,-0.11,-0.04,-0.06,0.13
8.694,-0.08,-0.05,-0.06,0.12
8.704,-0.03,-0.07,-0.09,0.12
8.714,-0.04,-0.10,-0.10,0.15
8.724,-0.13,-0.12,-0.12,0.21
8.734,-0.20,-0.10,-0.09,0.24
8.744,-0.22,-0.08,-0.06,0.25
8.754,-0.23,-0.06,-0.05,0.24
8.764,-0.18,-0.06,-0.02,0.20
8.774,-0.10,-0.05,0.01,0.12
8.784,-0.05,-0.08,-0.03,0.10
8.794,-0.02,-0.12,-0.06,0.14
8.804,0.01,-0.11,-0.06,0.12
8.814,-0.04,-0.09,-0.08,0.13
8.824,-0.13,-0.05,-0.08,0.16
8.834,-0.20,-0.02,-0.02,0.20
8.844,-0.18,-0.00,-0.01,0.18
8.854,-0.18,0.03,0.00,0.18
8.864,-0.13,0.03,-0.02,0.14
8.874,-0.10,0.03,-0.02,0.11
8.884,-0.08,0.00,-0.04,0.09
8.894,-0.07,-0.03,-0.10,0.12
8.904,-0.07,-0.04,-0.13,0.15
8.914,-0.10,-0.02,-0.06,0.12
8.924,-0.17,0.01,-0.02,0.17
8.934,-0.13,0.04,-0.01,0.14
8.944,-0.07,0.06,-0.01,0.10
8.954,-0.05,0.04,-0.03,0.07
8.964,-0.06,-0.02,-0.07,0.09
8.974,-0.07,-0.01,-0.06,0.09
8.984,-0.10,0.02,-0.00,0.10
8.994,-0.13,0.02,0.03,0.13
9.004,-0.16,0.05,0.01,0.17
9.014,-0.16,0.06,0.02,0.17
9.024,-0.12,0.06,0.04,0.14
9.034,-0.06,-0.01,-0.00,0.06
9.044,-0.02,-0.04,-0.04,0.06
9.054,-0.03,-0.05,-0.01,0.06
9.064,-0.06,-0.05,0.01,0.08
9.074,-0.13,-0.01,0.02,0.14
9.084,-0.14,0.01,0.04,0.15
9.094,-0.11,0.05,0.07,0.14
9.104,-0.11,0.05,0.11,0.16
9.114,-0.12,0.02,0.06,0.13
9.124,-0.12,-0.01,-0.02,0.12
9.134,-0.13,-0.00,-0.01,0.13
9.144,-0.10,0.01,0.02,0.11
9.154,-0.05,0.02,0.04,0.07
9.164,-0.03,0.02,0.01,0.04
9.174,-0.02,-0.01,0.00,0.03
9.184,-0.09,-0.03,-0.02,0.10
9.194,-0.15,-0.01,-0.04,0.15
9.204,-0.18,0.03,-0.03,0.19
9.214,-0.15,0.03,0.01,0.15
9.224,-0.14,0.05,0.02,0.15
9.234,-0.11,0.03,0.00,0.12
9.244,-0.06,-0.02,-0.09,0.11
9.254,-0.01,-0.06,-0.14,0.15
9.264,-0.03,-0.09,-0.19,0.21
9.274,-0.08,-0.07,-0.21,0.23
9.284,-0.09,-0.01,-0.14,0.16
9.294,-0.11,0.01,-0.10,0.15
9.304,-0.12,0.03,-0.03,0.13
9.314,-0.13,0.01,0.05,0.14
9.324,-0.13,0.01,-0.03,0.13
9.334,-0.10,-0.01,-0.08,0.13
9.344,-0.09,-0.00,-0.07,0.12
9.354,-0.02,-0.00,-0.08,0.09
9.364,-0.06,-0.02,-0.13,0.14
9.374,-0.07,-0.00,-0.11,0.13
9.384,-0.09,0.01,-0.08,0.12
9.394,-0.13,0.01,-0.07,0.15
9.404,-0.14,0.01,-0.03,0.15
9.414,-0.16,0.01,-0.07,0.17
9.424,-0.11,-0.01,-0.11,0.16
9.434,-0.07,0.01,-0.07,0.10
9.444,-0.03,0.01,-0.03,0.05
9.454,-0.02,0.01,-0.02,0.03
9.464,-0.02,-0.02,0.02,0.03
9.474,0.01,-0.02,0.01,0.02
9.484,0.04,-0.01,-0.04,0.06
9.494,0.04,0.02,-0.06,0.08
9.505,0.01,0.06,0.01,0.06
9.515,-0.06,0.05,0.00,0.08
9.524,-0.12,0.01,-0.03,0.13
9.535,-0.11,0.01,-0.08,0.14
9.544,-0.09,0.04,-0.06,0.12
9.554,-0.12,0.05,-0.04,0.13
9.565,-0.14,0.00,-0.05,0.15
9.575,-0.16,-0.03,-0.07,0.17
9.584,-0.17,-0.03,-0.07,0.19
9.594,-0.21,0.01,-0.04,0.22
9.604,-0.16,0.02,0.01,0.16
9.615,-0.08,0.03,0.03,0.09
9.624,-0.03,-0.01,-0.00,0.03
9.635,0.00,-0.05,-0.10,0.11
9.645,-0.05,-0.04,-0.13,0.15
9.654,-0.10,-0.02,-0.11,0.15
9.665,-0.14,0.01,-0.05,0.15
9.675,-0.15,0.05,0.01,0.16
9.685,-0.12,0.07,0.04,0.14
9.694,-0.10,0.04,0.02,0.11
9.705,-0.09,0.03,-0.00,0.10
9.715,-0.04,0.02,0.01,0.05
9.725,-0.04,-0.01,-0.01,0.04
9.735,-0.06,-0.03,-0.08,0.10
9.745,-0.11,-0.01,-0.06,0.13
9.755,-0.13,0.00,-0.07,0.14
9.765,-0.11,-0.02,-0.09,0.15
9.775,-0.11,-0.01,-0.05,0.12
9.785,-0.09,-0.02,-0.02,0.09
9.795,-0.07,-0.03,-0.08,0.11
9.805,-0.10,-0.04,-0.09,0.13
9.815,-0.12,-0.04,-0.09,0.16
9.825,-0.15,-0.01,-0.05,0.15
9.835,-0.14,-0.01,-0.01,0.14
9.845,-0.14,-0.02,0.03,0.14
9.855,-0.12,-0.02,-0.01,0.12
9.865,-0.12,-0.02,-0.09,0.15
9.875,-0.12,-0.07,-0.09,0.17
9.885,-0.13,-0.09,-0.10,0.19
9.895,-0.15,-0.07,-0.11,0.20
9.905,-0.14,-0.04,-0.08,0.17
9.915,-0.17,0.01,-0.00,0.17
9.925,-0.10,0.03,0.07,0.13
9.935,-0.09,0.03,0.10,0.13
9.945,-0.09,0.02,0.12,0.15
9.955,-0.07,-0.00,0.11,0.13
9.965,-0.07,-0.03,0.02,0.08
9.975,-0.07,-0.06,-0.01,0.10
9.985,-0.11,-0.07,-0.00,0.13
9.995,-0.09,-0.08,0.02,0.12
10.005,-0.15,0.02,-0.01,0.15
10.015,-0.13,0.02,-0.10,0.17
10.025,-0.16,0.05,-0.10,0.19
10.035,-0.06,0.03,-0.05,0.08
10.045,-0.05,0.01,-0.02,0.05
10.055,-0.08,0.06,0.06,0.12
10.065,-0.02,0.05,0.08,0.10
10.075,-0.06,0.02,-0.08,0.10
10.085,-0.10,0.00,-0.13,0.17
10.095,-0.08,0.00,-0.11,0.14
10.105,-0.09,0.01,-0.11,0.14
10.115,-0.10,-0.00,-0.14,0.17
10.125,-0.07,0.00,-0.12,0.14
10.135,-0.12,-0.01,-0.10,0.16
10.145,-0.15,-0.00,-0.08,0.17
10.155,-0.17,0.03,-0.05,0.18
10.165,-0.19,0.06,-0.02,0.20
10.175,-0.11,0.02,-0.05,0.13
10.185,-0.09,-0.00,-0.04,0.10
10.195,-0.04,0.05,-0.02,0.07
10.205,-0.06,0.01,-0.03,0.07
10.215,-0.04,-0.05,0.06,0.09
10.225,-0.05,-0.06,0.11,0.14
10.235,-0.10,0.01,0.06,0.11
10.245,-0.13,0.03,0.01,0.13
10.255,-0.16,0.07,0.01,0.17
10.265,-0.13,0.03,0.10,0.17
10.275,-0.15,0.04,0.10,0.18
10.285,-0.13,0.02,0.01,0.14
10.295,-0.13,-0.02,-0.03,0.14
10.305,-0.13,-0.03,-0.06,0.14
10.315,-0.15,-0.02,0.04,0.16
10.325,-0.10,-0.01,0.12,0.16
10.335,-0.11,0.01,0.10,0.15
10.345,-0.13,-0.01,0.07,0.15
10.355,-0.10,-0.04,-0.02,0.11
10.365,-0.08,-0.04,-0.12,0.15
10.375,-0.12,-0.03,-0.20,0.24
10.385,-0.16,-0.04,-0.20,0.26
10.395,-0.13,-0.01,-0.14,0.19
10.405,-0.05,0.01,-0.12,0.13
10.415,-0.09,0.01,-0.07,0.11
10.425,-0.12,-0.01,-0.04,0.13
10.435,-0.13,-0.01,0.00,0.13
10.445,-0.11,-0.03,-0.04,0.12
10.455,-0.08,-0.03,-0.08,0.11
10.465,-0.06,-0.03,-0.07,0.10
10.475,-0.01,-0.05,-0.06,0.08
10.485,0.05,-0.00,-0.08,0.10
10.495,0.07,0.03,-0.06,0.10
10.505,0.02,0.01,-0.01,0.02
10.515,-0.00,-0.01,0.00,0.01
10.525,-0.03,0.01,0.01,0.03
10.535,-0.09,0.01,0.02,0.09
10.545,-0.12,0.03,-0.01,0.13
10.555,-0.15,0.05,-0.01,0.16
10.565,-0.15,0.04,0.01,0.15
10.575,-0.12,0.06,0.01,0.13
10.585,-0.09,0.06,-0.01,0.11
10.595,-0.08,0.03,-0.03,0.09
10.605,-0.09,0.03,-0.04,0.11
10.615,-0.08,0.03,-0.04,0.09
10.625,-0.08,0.02,-0.05,0.09
10.635,-0.12,0.01,-0.08,0.14
10.645,-0.11,0.00,-0.10,0.15
10.655,-0.07,0.02,-0.14,0.16
10.665,-0.10,0.02,-0.16,0.19
10.675,-0.12,0.03,-0.08,0.15
10.685,-0.13,0.02,-0.04,0.14
10.695,-0.10,0.00,-0.07,0.12
10.705,-0.07,0.01,-0.12,0.14
10.715,-0.07,-0.02,-0.12,0.14
10.725,-0.10,-0.03,-0.11,0.15
10.735,-0.14,-0.04,-0.07,0.16
10.745,-0.11,-0.02,-0.04,0.12
10.755,-0.11,-0.01,-0.02,0.11
10.765,-0.10,-0.02,0.00,0.10
10.775,-0.07,0.03,0.03,0.08
10.785,-0.05,0.02,0.04,0.07
10.795,-0.05,-0.01,0.02,0.05
10.805,-0.10,-0.02,0.01,0.10
10.816,-0.16,-0.00,0.05,0.16
10.825,-0.17,0.03,0.08,0.19
10.835,-0.14,-0.00,0.05,0.15
10.845,-0.11,-0.02,-0.01,0.12
10.855,-0.12,-0.02,-0.06,0.14
10.865,-0.12,0.01,-0.05,0.13
10.876,-0.09,0.01,-0.01,0.09
10.885,-0.09,0.03,-0.03,0.10
10.896,-0.03,0.04,-0.05,0.07
10.905,-0.03,0.05,-0.02,0.07
10.915,-0.07,0.04,-0.04,0.10
10.925,-0.11,-0.01,-0.09,0.15
10.935,-0.14,-0.02,-0.17,0.22
10.945,-0.04,-0.03,-0.27,0.27
10.955,-0.06,-0.04,-0.19,0.21
10.966,-0.14,0.01,-0.10,0.17
10.976,-0.17,0.04,-0.07,0.19
10.985,-0.16,0.07,-0.04,0.18
10.996,-0.11,0.00,-0.07,0.13
11.005,-0.10,-0.04,-0.08,0.13
11.015,-0.13,0.00,-0.01,0.13
11.025,-0.15,0.02,0.03,0.15
11.036,-0.13,0.00,0.00,0.13
11.046,-0.10,-0.02,-0.04,0.11
11.056,-0.14,-0.01,-0.01,0.14
11.066,-0.14,-0.04,0.01,0.15
11.076,-0.11,-0.03,0.02,0.11
11.086,-0.10,-0.01,0.03,0.11
11.096,-0.14,-0.03,-0.00,0.14
11.106,-0.10,-0.03,-0.02,0.10
11.116,-0.07,0.00,-0.07,0.10
11.126,-0.02,0.00,-0.03,0.04
11.136,-0.09,-0.01,0.07,0.12
11.146,-0.11,0.00,0.01,0.11
11.156,-0.10,-0.01,-0.02,0.10
11.166,-0.02,-0.01,-0.02,0.03
11.176,-0.02,0.01,-0.05,0.05
11.186,-0.03,0.00,-0.04,0.05
11.196,-0.02,0.02,-0.02,0.03
11.206,-0.01,0.02,0.01,0.03
11.216,-0.06,0.04,0.04,0.08
11.226,-0.08,0.03,0.04,0.10
11.236,-0.05,0.03,0.01,0.06
11.246,-0.10,0.02,-0.01,0.10
11.256,-0.15,0.01,-0.03,0.15
11.266,-0.18,0.00,-0.07,0.19
11.276,-0.17,-0.01,-0.06,0.18
11.286,-0.16,-0.01,0.01,0.16
11.296,-0.18,0.03,0.07,0.20
11.306,-0.18,0.02,0.05,0.19
11.316,-0.11,-0.04,-0.07,0.14
11.326,-0.08,-0.08,-0.08,0.14
11.336,-0.08,-0.08,-0.12,0.17
11.346,-0.09,-0.04,-0.13,0.16
11.356,-0.08,0.01,-0.06,0.10
11.366,-0.06,0.02,0.03,0.07
11.376,-0.09,0.00,0.01,0.09
11.386,-0.11,-0.01,-0.01,0.12
11.396,-0.09,-0.02,-0.00,0.09
11.406,-0.02,-0.02,0.01,0.03
11.416,-0.03,-0.01,-0.01,0.03
11.426,-0.08,0.01,0.03,0.08
11.436,-0.11,0.01,0.03,0.11
11.446,-0.04,-0.01,-0.06,0.07
11.456,-0.07,-0.04,-0.07,0.10
11.466,-0.14,-0.01,-0.02,0.14
11.476,-0.16,0.02,-0.01,0.16
11.486,-0.08,0.03,-0.03,0.09
11.496,0.03,-0.03,-0.15,0.15
11.506,-0.05,-0.01,-0.16,0.16
11.516,-0.15,0.07,-0.06,0.17
11.526,-0.16,0.11,-0.00,0.20
11.536,-0.10,0.08,0.02,0.13
11.546,-0.08,0.02,-0.02,0.08
11.556,-0.15,0.03,-0.07,0.17
11.566,-0.14,-0.01,-0.05,0.15
11.576,-0.09,-0.01,-0.03,0.10
11.586,-0.05,0.00,-0.08,0.10
11.596,-0.06,-0.00,-0.07,0.10
11.606,-0.06,-0.01,-0.02,0.06
11.616,-0.02,-0.01,-0.01,0.03
11.626,-0.02,0.01,-0.07,0.07
11.636,-0.05,0.02,0.03,0.06
11.646,-0.09,0.04,0.15,0.18
11.656,-0.12,0.06,0.13,0.19
11.666,-0.14,0.04,0.08,0.17
11.676,-0.15,-0.03,0.05,0.16
11.686,-0.14,-0.04,-0.00,0.14
11.696,-0.13,-0.03,-0.01,0.13
11.706,-0.12,-0.03,0.02,0.12
11.716,-0.12,-0.05,-0.00,0.13
11.726,-0.11,-0.06,-0.04,0.13
11.736,-0.11,-0.04,-0.05,0.12
11.746,-0.14,-0.02,-0.08,0.16
11.756,-0.12,0.01,-0.12,0.17
11.766,-0.10,0.03,-0.07,0.13
11.776,-0.09,0.04,-0.02,0.10
11.786,-0.08,0.06,-0.01,0.10
11.796,-0.08,0.06,-0.03,0.11
11.806,-0.08,0.06,-0.03,0.11
11.816,-0.06,0.02,-0.04,0.07
11.826,-0.08,0.01,-0.06,0.10
11.836,-0.09,-0.00,-0.08,0.12
11.846,-0.10,0.01,-0.08,0.13
11.856,-0.12,0.02,-0.06,0.14
11.866,-0.15,0.01,-0.03,0.15
11.876,-0.16,0.03,-0.02,0.17
11.886,-0.09,0.03,-0.03,0.10
11.896,-0.13,0.02,-0.08,0.15
11.906,-0.14,0.01,-0.09,0.17
11.916,-0.12,0.01,-0.05,0.13
11.926,-0.09,0.01,-0.04,0.10
11.936,-0.08,0.02,-0.05,0.10
11.946,-0.05,0.02,0.02,0.06
11.956,-0.08,0.03,0.01,0.08
11.966,-0.07,0.02,-0.02,0.08
11.976,-0.05,0.01,-0.02,0.05
11.986,-0.05,-0.01,-0.01,0.06
11.995,-0.11,-0.01,-0.01,0.11
12.005,-0.15,-0.01,-0.03,0.15
12.015,-0.11,-0.02,-0.05,0.13
12.025,-0.11,-0.03,-0.01,0.12
12.035,-0.12,0.02,0.03,0.12
12.045,-0.13,0.04,0.02,0.13
12.055,-0.07,0.02,-0.01,0.08
12.065,-0.05,-0.03,-0.04,0.07
12.075,-0.09,-0.07,-0.03,0.12
12.085,-0.17,-0.04,-0.07,0.19
12.095,-0.20,-0.01,-0.05,0.20
12.105,-0.18,-0.00,0.08,0.20
12.115,-0.11,-0.03,0.05,0.13
12.125,-0.08,-0.03,-0.01,0.09
12.135,-0.03,-0.03,-0.06,0.07
12.145,0.03,-0.01,-0.08,0.09
12.155,0.02,-0.03,-0.02,0.04
12.165,-0.05,-0.00,0.06,0.08
12.175,-0.13,0.01,0.07,0.15
12.185,-0.16,0.00,0.05,0.17
12.195,-0.03,-0.03,-0.03,0.05
12.205,-0.03,-0.06,-0.12,0.14
12.215,-0.10,-0.06,-0.07,0.13
12.225,-0.13,0.01,0.03,0.14
12.235,-0.09,0.05,0.08,0.13
12.245,-0.02,-0.00,0.02,0.03
12.255,-0.01,-0.03,-0.04,0.05
12.265,-0.06,-0.02,-0.03,0.07
12.275,-0.10,0.02,-0.04,0.10
12.285,-0.10,0.04,-0.00,0.11
12.295,-0.09,0.05,0.00,0.10
12.305,-0.08,0.06,-0.06,0.12
12.315,-0.11,0.06,-0.11,0.16
12.325,-0.16,0.08,-0.12,0.22
12.335,-0.18,0.06,-0.13,0.22
12.345,-0.17,0.05,-0.10,0.20
12.359,-0.13,0.01,-0.07,0.15
12.369,-0.17,-0.02,-0.10,0.19
12.379,-0.19,-0.03,-0.15,0.25
12.389,-0.19,-0.04,-0.14,0.24
12.399,-0.14,-0.04,-0.08,0.17
12.409,-0.15,-0.04,-0.06,0.17
12.419,-0.11,-0.07,-0.02,0.13
12.429,-0.03,-0.09,-0.03,0.10
12.439,-0.03,-0.15,-0.11,0.19
12.449,-0.06,-0.18,-0.11,0.21
12.459,-0.09,-0.18,-0.02,0.21
12.469,-0.07,-0.14,0.02,0.16
12.479,-0.05,-0.15,-0.01,0.16
12.489,-0.05,-0.16,0.00,0.17
12.499,-0.05,-0.14,-0.02,0.15
12.509,-0.07,-0.14,-0.03,0.16
12.519,-0.00,-0.13,-0.03,0.13
12.529,0.01,-0.08,-0.04,0.09
12.539,-0.07,-0.02,0.01,0.08
12.549,-0.08,0.06,0.06,0.12
12.559,-0.09,0.10,0.09,0.16
12.569,-0.08,0.15,0.04,0.18
12.579,-0.08,0.17,0.02,0.19
12.589,-0.09,0.19,-0.00,0.21
12.599,-0.05,0.19,-0.04,0.20
12.609,-0.05,0.20,-0.03,0.21
12.619,-0.06,0.18,-0.07,0.20
12.629,-0.10,0.15,-0.09,0.20
12.639,-0.11,0.14,-0.14,0.22
12.649,-0.14,0.13,-0.14,0.24
12.659,-0.18,0.13,-0.12,0.25
12.669,-0.17,0.13,-0.09,0.23
12.679,-0.16,0.10,-0.09,0.21
12.689,-0.14,0.06,-0.11,0.18
12.699,-0.09,0.03,-0.11,0.15
12.709,-0.09,0.01,-0.12,0.15
12.719,-0.09,-0.01,-0.11,0.14
12.729,-0.11,-0.01,-0.11,0.16
12.739,-0.11,0.00,-0.06,0.13
12.749,-0.09,0.05,0.01,0.11
12.759,-0.06,0.05,0.06,0.10
12.769,-0.02,0.01,0.07,0.08
12.779,-0.05,-0.00,0.02,0.06
12.789,-0.03,-0.03,-0.04,0.06
12.799,-0.04,-0.04,-0.07,0.09
12.809,-0.09,-0.03,-0.01,0.10
12.819,-0.10,-0.02,0.03,0.10
12.829,-0.09,-0.01,0.03,0.10
12.839,-0.11,-0.01,-0.01,0.11
12.849,-0.09,-0.03,-0.01,0.10
12.859,-0.10,-0.02,0.00,0.10
12.869,-0.07,-0.00,-0.01,0.07
12.879,-0.09,-0.01,-0.02,0.09
12.889,-0.15,-0.02,-0.04,0.16
12.899,-0.23,-0.05,-0.11,0.26
12.909,-0.22,-0.05,-0.13,0.26
12.919,-0.16,-0.02,-0.06,0.17
12.930,-0.10,-0.01,0.01,0.11
12.939,-0.09,-0.03,0.02,0.09
12.949,-0.01,-0.04,-0.02,0.05
12.959,0.02,-0.04,-0.07,0.09
12.969,0.04,-0.07,-0.11,0.14
12.979,0.03,-0.02,-0.08,0.09
12.989,0.00,-0.00,-0.04,0.04
13.000,-0.05,0.02,-0.01,0.06
13.009,-0.11,0.04,0.01,0.12
13.020,-0.15,0.03,-0.03,0.16
13.029,-0.17,0.03,-0.03,0.17
13.039,-0.16,0.02,-0.02,0.17
13.049,-0.07,0.05,-0.00,0.08
13.060,-0.03,0.04,0.04,0.06
13.070,-0.02,0.01,0.04,0.05
13.080,-0.02,-0.00,0.10,0.10
13.089,-0.10,-0.06,0.15,0.19
13.100,-0.16,-0.08,0.19,0.27
13.110,-0.12,-0.12,0.12,0.21
13.120,-0.04,-0.18,-0.01,0.18
13.130,-0.02,-0.22,-0.12,0.25
13.140,0.04,-0.20,-0.19,0.28
13.149,0.04,-0.13,-0.17,0.22
13.160,0.02,-0.07,-0.12,0.14
13.170,0.00,0.00,-0.11,0.11
13.180,-0.03,0.05,-0.09,0.11
13.190,-0.09,0.05,-0.10,0.15
13.200,-0.11,0.06,-0.14,0.18
13.210,-0.18,0.09,-0.20,0.28
13.220,-0.22,0.12,-0.19,0.32
13.230,-0.23,0.16,-0.12,0.31
13.240,-0.22,0.19,-0.06,0.30
13.250,-0.18,0.20,0.02,0.27
13.260,-0.14,0.18,0.01,0.23
13.270,-0.11,0.11,-0.02,0.15
13.280,-0.15,0.04,-0.12,0.20
13.290,-0.18,0.00,-0.20,0.27
13.300,-0.21,-0.02,-0.24,0.32
13.310,-0.18,-0.01,-0.20,0.27
13.320,-0.13,0.03,-0.08,0.15
13.330,-0.14,0.06,0.01,0.15
13.340,-0.11,0.06,0.04,0.13
13.350,-0.10,0.04,0.09,0.14
13.360,-0.10,0.03,0.05,0.12
13.370,-0.09,0.00,-0.01,0.09
13.380,-0.07,-0.00,-0.03,0.08
13.390,-0.03,0.01,0.03,0.05
13.400,-0.02,0.04,0.08,0.09
13.410,0.02,0.05,0.09,0.11
13.420,0.00,0.05,0.12,0.13
13.430,-0.01,0.05,0.07,0.09
13.440,-0.04,0.03,0.03,0.06
13.450,-0.10,0.02,0.06,0.12
13.460,-0.11,-0.00,0.05,0.12
13.470,-0.09,0.01,0.03,0.10
13.480,-0.09,-0.04,0.01,0.10
13.490,-0.15,-0.04,-0.04,0.16
13.500,-0.16,-0.03,-0.04,0.17
13.510,-0.16,-0.05,-0.02,0.17
13.520,-0.10,-0.05,-0.02,0.12
13.530,-0.10,-0.08,-0.04,0.14
13.540,-0.16,-0.10,0.01,0.19
13.550,-0.15,-0.09,-0.00,0.17
13.560,-0.13,-0.07,-0.05,0.16
13.570,-0.14,-0.08,-0.10,0.19
13.580,-0.17,-0.04,-0.08,0.19
13.590,-0.17,-0.02,-0.00,0.17
13.600,-0.13,0.02,0.04,0.14
13.610,-0.09,0.02,0.05,0.11
13.620,-0.05,0.02,0.08,0.10
13.630,-0.04,0.03,0.07,0.08
13.640,-0.01,0.04,0.08,0.09
13.650,-0.04,0.06,0.08,0.11
13.660,-0.03,0.04,0.01,0.05
13.670,-0.02,0.03,-0.03,0.05
13.680,-0.09,0.04,-0.06,0.12
13.690,-0.18,0.05,-0.07,0.20
13.700,-0.19,0.04,-0.11,0.23
13.710,-0.22,0.01,-0.13,0.25
13.720,-0.20,-0.02,-0.09,0.22
13.730,-0.14,-0.02,-0.05,0.15
13.740,-0.06,-0.01,-0.08,0.10
13.750,-0.05,-0.03,-0.06,0.08
13.760,-0.10,0.01,0.02,0.10
13.770,-0.12,0.03,0.00,0.12
13.780,-0.10,0.02,-0.08,0.13
13.790,-0.10,0.03,-0.15,0.18
13.800,-0.10,0.04,-0.11,0.15
13.810,-0.05,0.05,-0.09,0.12
13.820,-0.07,0.09,-0.07,0.13
13.830,-0.11,0.08,-0.01,0.14
13.840,-0.11,0.08,0.03,0.14
13.850,-0.12,0.05,-0.04,0.14
13.860,-0.13,0.03,-0.08,0.15
13.870,-0.11,0.04,-0.07,0.14
13.880,-0.10,0.04,0.00,0.11
13.890,-0.08,0.01,0.03,0.09
13.900,-0.07,-0.02,-0.03,0.08
13.910,-0.04,-0.05,-0.09,0.11
13.920,-0.01,-0.05,-0.09,0.11
13.930,-0.06,-0.02,-0.10,0.12
13.940,-0.06,0.02,-0.04,0.08
13.950,-0.07,0.08,0.04,0.11
13.960,-0.06,0.08,0.08,0.13
13.970,-0.08,0.06,0.07,0.12
13.980,-0.12,0.07,0.06,0.15
13.990,-0.17,0.05,0.04,0.18
14.000,-0.17,0.05,0.05,0.19
14.010,-0.16,-0.01,0.07,0.17
14.020,-0.09,-0.04,-0.01,0.10
14.030,-0.07,-0.11,-0.07,0.15
14.040,-0.05,-0.12,-0.09,0.15
14.050,-0.06,-0.09,-0.09,0.14
14.060,-0.13,-0.07,-0.05,0.16
14.070,-0.17,-0.07,-0.07,0.20
14.080,-0.15,-0.06,-0.14,0.22
14.090,-0.13,-0.07,-0.17,0.22
14.100,-0.16,-0.04,-0.13,0.21
14.110,-0.17,-0.04,-0.08,0.19
14.120,-0.16,-0.03,-0.07,0.18
14.130,-0.15,-0.03,-0.10,0.18
14.140,-0.13,-0.03,-0.07,0.15
14.150,-0.09,-0.00,-0.01,0.09
14.160,-0.05,0.02,0.07,0.09
14.170,-0.06,0.02,0.03,0.07
14.180,-0.07,-0.04,0.02,0.08
14.190,-0.10,-0.09,-0.06,0.15
14.200,-0.15,-0.13,-0.13,0.24
14.210,-0.16,-0.11,-0.15,0.25
14.220,-0.16,-0.07,-0.12,0.21
14.230,-0.12,-0.03,-0.03,0.13
14.240,-0.08,-0.00,0.03,0.08
14.250,-0.06,-0.00,0.04,0.07
14.260,-0.04,-0.02,-0.05,0.07
14.270,-0.08,0.02,-0.09,0.13
14.280,-0.13,0.03,-0.06,0.14
14.290,-0.14,0.05,-0.04,0.15
14.300,-0.13,0.07,-0.09,0.17
14.310,-0.07,0.08,-0.08,0.13
14.320,-0.01,0.11,0.01,0.11
14.331,0.05,0.13,0.01,0.14
14.340,0.01,0.13,-0.03,0.13
14.350,-0.03,0.13,-0.01,0.14
14.360,-0.06,0.14,0.02,0.16
14.370,-0.05,0.13,0.03,0.14
14.381,-0.03,0.13,0.06,0.15
14.391,-0.02,0.11,0.09,0.14
14.400,-0.04,0.08,0.06,0.10
14.411,-0.05,0.04,0.05,0.08
14.420,-0.06,-0.00,0.02,0.06
14.431,-0.10,-0.01,0.02,0.11
14.441,-0.11,-0.04,-0.02,0.12
14.450,-0.10,-0.03,-0.05,0.12
14.461,-0.08,-0.03,-0.03,0.09
14.471,-0.07,0.00,0.00,0.07
14.481,-0.10,0.02,0.03,0.11
14.491,-0.10,0.02,0.02,0.10
14.500,-0.11,0.01,0.02,0.11
14.511,-0.11,0.00,-0.00,0.11
14.521,-0.11,-0.00,-0.03,0.11
14.531,-0.09,0.01,-0.01,0.09
14.541,-0.10,0.01,-0.06,0.11
14.551,-0.11,-0.01,-0.08,0.14
14.561,-0.12,-0.05,-0.11,0.17
14.571,-0.17,-0.04,-0.11,0.20
14.581,-0.17,-0.02,-0.06,0.19
14.591,-0.14,-0.02,-0.04,0.14
14.600,-0.06,-0.03,-0.06,0.09
14.611,0.02,-0.05,-0.08,0.09
14.621,0.02,-0.06,-0.12,0.14
14.631,0.03,-0.07,-0.12,0.14
14.641,-0.00,-0.05,-0.10,0.11
14.651,-0.09,0.00,-0.10,0.14
14.661,-0.16,0.04,-0.09,0.19
14.671,-0.20,0.08,-0.05,0.22
14.681,-0.17,0.10,-0.01,0.20
14.691,-0.10,0.04,-0.01,0.11
14.701,-0.05,0.01,-0.06,0.08
14.711,-0.03,-0.01,-0.09,0.10
14.721,-0.03,0.03,-0.04,0.06
14.731,-0.07,0.08,0.01,0.11
14.741,-0.06,0.10,0.04,0.12
14.751,-0.04,0.05,0.03,0.07
14.761,-0.05,0.02,-0.06,0.08
14.771,-0.04,-0.00,-0.09,0.10
14.781,0.03,0.01,-0.10,0.10
14.791,0.06,0.02,-0.08,0.10
14.801,0.06,0.07,-0.00,0.09
14.811,-0.03,0.07,0.06,0.09
14.821,-0.08,0.03,0.01,0.09
14.831,-0.14,-0.01,-0.09,0.17
14.841,-0.17,-0.09,-0.17,0.25
14.851,-0.17,-0.13,-0.19,0.28
14.861,-0.16,-0.15,-0.15,0.27
14.871,-0.15,-0.16,-0.17,0.28
14.881,-0.15,-0.11,-0.18,0.26
14.891,-0.14,-0.05,-0.05,0.15
14.901,-0.13,0.00,0.01,0.13
14.911,-0.14,0.00,-0.02,0.14
14.921,-0.14,0.01,-0.02,0.14
14.931,-0.13,0.00,0.06,0.15
14.941,-0.13,-0.01,0.05,0.14
14.951,-0.14,-0.00,0.01,0.14
14.961,-0.12,-0.01,0.02,0.12
14.971,-0.13,-0.02,0.04,0.14
14.981,-0.10,-0.01,0.01,0.11
14.991,-0.07,-0.03,-0.04,0.09
15.001,-0.02,-0.03,-0.05,0.06
15.011,-0.02,-0.00,-0.02,0.03
15.021,-0.06,-0.00,-0.02,0.06
15.031,-0.05,0.03,-0.01,0.06
15.041,-0.03,0.01,-0.04,0.05
15.051,-0.08,0.02,-0.08,0.11
15.061,-0.11,0.01,-0.09,0.14
15.071,-0.13,0.01,-0.08,0.15
15.081,-0.12,0.05,-0.11,0.17
15.091,-0.14,0.06,-0.08,0.17
15.101,-0.12,0.06,-0.06,0.14
15.111,-0.12,0.04,-0.08,0.15
15.121,-0.12,0.01,-0.15,0.19
15.131,-0.12,0.00,-0.19,0.22
15.141,-0.09,0.01,-0.14,0.16
15.151,-0.11,0.01,-0.07,0.13
15.161,-0.10,0.01,-0.05,0.11
15.171,-0.10,-0.01,-0.06,0.12
15.181,-0.09,-0.01,-0.07,0.12
15.191,-0.10,-0.01,-0.03,0.10
15.201,-0.10,-0.02,-0.06,0.11
15.211,-0.14,-0.02,-0.03,0.15
15.221,-0.16,-0.02,0.02,0.16
15.231,-0.17,-0.02,0.02,0.17
15.241,-0.15,-0.02,-0.04,0.16
15.251,-0.09,-0.02,-0.06,0.11
15.261,-0.01,-0.00,-0.01,0.02
15.271,-0.02,0.01,0.02,0.03
15.281,-0.06,0.01,0.03,0.06
15.291,-0.07,0.01,0.00,0.07
15.301,-0.10,0.00,-0.05,0.11
15.311,-0.10,-0.00,-0.08,0.13
15.321,-0.12,0.03,-0.06,0.13
15.331,-0.14,0.03,-0.04,0.14
15.341,-0.15,-0.00,-0.03,0.15
15.351,-0.17,-0.03,-0.09,0.20
15.361,-0.18,-0.04,-0.11,0.22
15.371,-0.18,-0.05,-0.06,0.20
15.381,-0.14,-0.05,-0.05,0.16
15.391,-0.05,-0.05,-0.04,0.08
15.401,-0.02,-0.07,-0.05,0.09
15.411,-0.03,-0.08,-0.08,0.11
15.421,-0.06,-0.06,-0.07,0.11
15.431,-0.09,-0.02,-0.02,0.09
15.441,-0.17,0.04,0.04,0.18
15.451,-0.27,0.10,0.13,0.32
15.461,-0.33,0.10,0.11,0.36
15.471,-0.34,0.11,0.09,0.37
15.481,-0.30,0.10,0.07,0.32
15.491,-0.23,0.07,0.04,0.24
15.501,-0.17,0.04,0.03,0.18
15.511,-0.07,0.02,-0.01,0.07
15.521,0.06,-0.01,-0.09,0.11
15.531,0.14,-0.04,-0.08,0.16
15.541,0.15,-0.08,-0.04,0.17
15.551,0.13,-0.06,-0.09,0.17
15.561,0.12,-0.07,-0.14,0.20
15.571,0.07,-0.07,-0.21,0.23
15.581,-0.02,-0.03,-0.24,0.25
15.591,-0.07,-0.00,-0.24,0.25
15.601,-0.12,0.02,-0.20,0.24
15.611,-0.10,0.05,-0.15,0.19
15.621,-0.07,0.06,-0.10,0.14
15.631,-0.08,0.07,-0.08,0.13
15.641,-0.05,0.03,-0.06,0.08
15.651,-0.06,0.01,-0.04,0.08
15.662,-0.09,0.01,-0.03,0.09
15.671,-0.11,0.01,-0.02,0.11
15.681,-0.17,0.01,0.03,0.18
15.691,-0.15,0.02,0.09,0.18
15.701,-0.13,0.02,0.10,0.16
15.711,-0.16,0.02,0.11,0.19
15.721,-0.18,-0.04,0.09,0.21
15.731,-0.18,-0.07,0.01,0.19
15.742,-0.11,-0.07,-0.04,0.14
15.751,-0.04,-0.06,0.01,0.08
15.761,0.00,-0.05,0.06,0.08
15.771,-0.00,-0.03,0.09,0.09
15.782,-0.09,0.00,0.09,0.12
15.791,-0.10,0.01,0.01,0.10
15.802,-0.13,-0.00,-0.02,0.14
15.812,-0.14,-0.01,-0.03,0.15
15.822,-0.12,0.01,-0.05,0.13
15.832,-0.01,0.01,-0.01,0.02
15.841,0.02,0.02,-0.02,0.03
15.852,-0.02,0.03,-0.04,0.06
15.862,-0.05,0.01,-0.08,0.10
15.872,-0.06,0.03,-0.12,0.14
15.882,-0.10,0.03,-0.12,0.16
15.891,-0.14,0.03,-0.09,0.17
15.902,-0.09,0.02,-0.04,0.10
15.912,-0.09,0.01,-0.06,0.11
15.922,-0.12,-0.01,-0.12,0.17
15.932,-0.13,-0.00,-0.15,0.20
15.942,-0.17,0.01,-0.11,0.20
15.952,-0.16,-0.00,-0.08,0.18
15.962,-0.17,-0.01,-0.04,0.17
15.972,-0.15,-0.01,-0.02,0.15
15.982,-0.06,-0.01,-0.01,0.06
15.993,-0.05,-0.02,0.02,0.05
15.998,-0.07,-0.01,0.04,0.08
16.008,-0.09,0.01,0.08,0.13
16.018,-0.07,0.01,0.07,0.10
16.028,-0.08,0.00,0.03,0.08
16.038,-0.08,-0.01,0.01,0.09
16.048,-0.06,-0.02,-0.03,0.07
16.058,-0.06,0.00,-0.07,0.09
16.068,-0.12,0.02,-0.03,0.12
16.078,-0.13,0.04,0.01,0.14
16.088,-0.12,0.06,0.01,0.14
16.098,-0.11,0.04,-0.03,0.12
16.108,-0.15,0.02,-0.08,0.17
16.118,-0.16,0.01,-0.07,0.17
16.128,-0.18,0.01,-0.10,0.21
16.138,-0.19,-0.00,-0.08,0.21
16.148,-0.16,0.00,0.02,0.16
16.158,-0.11,-0.01,0.03,0.11
16.168,-0.06,-0.04,-0.03,0.08
16.178,-0.03,-0.08,-0.10,0.14
16.188,0.02,-0.10,-0.15,0.18
16.198,0.02,-0.08,-0.18,0.20
16.208,0.01,-0.04,-0.18,0.18
16.218,-0.06,0.01,-0.07,0.09
16.228,-0.11,0.04,0.01,0.11
16.238,-0.10,0.05,0.02,0.12
16.248,-0.13,0.02,-0.01,0.13
16.258,-0.09,0.02,-0.04,0.10
16.268,-0.09,0.01,-0.04,0.10
16.278,-0.06,0.03,-0.05,0.09
16.288,-0.03,0.05,-0.02,0.06
16.298,-0.07,0.05,0.07,0.11
16.308,-0.11,0.05,0.08,0.14
16.318,-0.13,0.02,-0.02,0.13
16.328,-0.12,0.01,-0.01,0.12
16.338,-0.07,-0.00,0.02,0.07
16.348,-0.03,0.02,-0.03,0.05
16.358,-0.02,-0.00,-0.04,0.05
16.368,-0.07,0.01,-0.01,0.08
16.378,-0.12,0.01,0.00,0.12
16.388,-0.15,-0.01,-0.06,0.17
16.398,-0.17,-0.03,-0.12,0.21
16.408,-0.17,-0.04,-0.11,0.21
16.418,-0.17,-0.04,-0.08,0.19
16.428,-0.15,-0.02,-0.04,0.16
16.438,-0.09,-0.01,0.03,0.10
16.448,-0.09,0.00,0.02,0.09
16.458,-0.06,0.00,0.00,0.06
16.468,-0.07,0.01,-0.02,0.07
16.478,-0.05,-0.01,-0.06,0.08
16.488,-0.05,-0.00,-0.11,0.12
16.498,-0.06,0.02,-0.05,0.08
16.508,-0.11,0.04,0.05,0.13
16.518,-0.15,0.05,0.05,0.17
16.528,-0.11,0.05,0.05,0.13
16.538,-0.08,0.04,0.03,0.10
16.548,-0.09,0.03,-0.01,0.09
16.558,-0.10,-0.01,-0.07,0.12
16.568,-0.10,-0.02,-0.13,0.16
16.578,-0.10,-0.03,-0.13,0.17
16.588,-0.13,0.01,-0.10,0.17
16.598,-0.18,0.06,-0.07,0.20
16.608,-0.16,0.08,-0.06,0.19
16.618,-0.10,0.07,-0.01,0.12
16.628,-0.03,0.04,-0.03,0.06
16.638,-0.01,0.03,-0.06,0.07
16.648,-0.03,0.03,-0.08,0.09
16.658,-0.04,0.03,-0.08,0.09
16.668,-0.05,0.01,-0.08,0.09
16.678,-0.09,0.04,-0.09,0.13
16.688,-0.13,0.08,-0.04,0.16
16.698,-0.16,0.07,-0.02,0.18
16.708,-0.15,0.08,-0.08,0.19
16.718,-0.10,0.01,-0.04,0.11
16.729,-0.05,-0.01,-0.04,0.07
16.738,-0.06,-0.03,-0.06,0.09
16.748,-0.06,-0.05,-0.04,0.09
16.758,-0.06,-0.03,0.00,0.07
16.768,-0.09,-0.06,-0.02,0.11
16.778,-0.10,-0.06,-0.03,0.12
16.788,-0.11,-0.04,-0.04,0.12
16.798,-0.09,-0.05,-0.04,0.11
16.809,-0.12,-0.04,-0.05,0.13
16.819,-0.14,-0.03,-0.01,0.14
16.829,-0.14,-0.02,-0.02,0.15
16.839,-0.15,0.00,0.02,0.15
16.848,-0.17,-0.02,0.06,0.18
16.858,-0.15,-0.03,-0.03,0.15
16.868,-0.11,-0.02,-0.08,0.13
16.879,-0.05,-0.04,-0.04,0.08
16.888,-0.08,-0.04,-0.02,0.09
16.898,-0.08,-0.01,0.00,0.08
16.908,-0.10,0.01,-0.02,0.10
16.918,-0.11,-0.01,-0.01,0.11
16.928,-0.09,-0.03,-0.04,0.10
16.939,-0.09,-0.00,-0.06,0.11
16.949,-0.06,0.00,-0.02,0.07
16.959,-0.02,0.01,-0.01,0.03
16.968,0.00,-0.00,-0.07,0.07
16.979,0.01,-0.00,-0.14,0.14
16.989,-0.03,-0.02,-0.12,0.12
16.999,-0.11,0.02,-0.05,0.13
17.009,-0.24,0.04,0.01,0.24
17.019,-0.29,0.03,0.01,0.29
17.029,-0.21,0.02,-0.05,0.22
17.039,-0.13,-0.00,-0.09,0.16
17.049,-0.05,-0.01,-0.14,0.15
17.059,0.01,-0.02,-0.11,0.11
17.069,-0.01,-0.00,-0.04,0.04
17.079,-0.02,0.02,-0.00,0.02
17.089,-0.07,0.05,0.00,0.09
17.099,-0.19,0.08,0.01,0.20
17.109,-0.15,0.10,0.02,0.18
17.119,-0.11,0.08,0.02,0.14
17.129,-0.10,0.07,-0.01,0.12
17.139,-0.11,0.07,0.01,0.13
17.149,-0.08,0.04,-0.00,0.09
17.159,-0.03,0.01,-0.05,0.06
17.169,-0.01,-0.03,-0.03,0.04
17.179,-0.05,-0.02,-0.04,0.07
17.189,-0.07,-0.01,-0.00,0.07
17.199,-0.10,-0.01,-0.01,0.11
17.209,-0.14,0.02,-0.03,0.15
17.219,-0.16,0.04,0.01,0.17
17.229,-0.13,0.04,-0.02,0.14
17.239,-0.07,0.00,-0.08,0.10
17.249,-0.03,-0.01,-0.08,0.09
17.259,-0.07,-0.01,-0.10,0.13
17.269,-0.14,-0.03,-0.10,0.17
17.279,-0.18,-0.04,-0.11,0.21
17.289,-0.18,-0.02,-0.08,0.20
17.299,-0.15,-0.01,-0.03,0.15
17.309,-0.14,-0.00,-0.01,0.14
17.319,-0.13,-0.01,-0.02,0.13
17.329,-0.08,-0.06,0.02,0.10
17.339,-0.10,-0.09,-0.01,0.13
17.349,-0.07,-0.09,-0.06,0.12
17.359,-0.04,-0.07,-0.02,0.09
17.369,-0.00,-0.05,0.04,0.06
17.379,0.03,-0.04,0.05,0.07
17.389,0.03,-0.03,0.04,0.06
17.399,-0.02,-0.02,0.05,0.06
17.409,-0.07,-0.04,-0.00,0.08
17.419,-0.12,-0.02,-0.03,0.12
17.429,-0.16,-0.02,0.00,0.16
17.439,-0.15,0.03,-0.00,0.15
17.449,-0.15,0.01,0.02,0.15
17.459,-0.14,0.03,-0.01,0.14
17.469,-0.10,0.05,-0.00,0.11
17.479,-0.10,0.01,-0.02,0.11
17.489,-0.12,-0.00,-0.09,0.15
17.499,-0.13,-0.01,-0.14,0.19
17.509,-0.11,-0.03,-0.15,0.19
17.519,-0.10,-0.02,-0.08,0.13
17.529,-0.07,0.01,-0.03,0.08
17.539,-0.07,0.01,-0.03,0.08
17.549,-0.05,-0.01,-0.12,0.13
17.559,-0.06,-0.02,-0.15,0.17
17.569,-0.13,0.01,-0.10,0.17
17.579,-0.14,0.08,-0.03,0.16
17.589,-0.10,0.09,0.01,0.13
17.599,-0.06,0.05,0.02,0.08
17.609,-0.06,0.05,0.03,0.08
17.619,-0.03,0.02,-0.02,0.04
17.629,-0.02,-0.01,-0.06,0.07
17.639,-0.07,-0.00,-0.03,0.08
17.649,-0.12,-0.01,0.00,0.13
17.659,-0.16,0.01,0.00,0.16
17.669,-0.16,0.03,0.03,0.16
17.679,-0.12,0.00,0.02,0.13
17.689,-0.12,-0.02,0.02,0.12
17.699,-0.10,-0.01,0.02,0.10
17.709,-0.11,0.00,0.07,0.13
17.719,-0.11,0.00,0.08,0.14
17.729,-0.12,-0.01,0.03,0.13
17.739,-0.12,-0.05,-0.05,0.14
17.749,-0.12,-0.06,-0.03,0.14
17.759,-0.04,-0.05,0.04,0.08
17.769,-0.02,-0.03,0.04,0.05
17.779,-0.01,-0.03,0.01,0.03
17.789,-0.01,-0.03,-0.02,0.04
17.799,-0.04,-0.01,-0.05,0.07
17.809,-0.07,-0.01,-0.04,0.08
17.819,-0.09,0.02,-0.01,0.09
17.829,-0.05,0.04,-0.00,0.07
17.839,-0.05,0.02,-0.06,0.08
17.849,-0.04,0.00,-0.12,0.12
17.859,-0.09,-0.00,-0.12,0.15
17.869,-0.10,0.01,-0.12,0.16
17.879,-0.11,-0.00,-0.10,0.15
17.889,-0.17,0.01,-0.15,0.22
17.899,-0.21,-0.00,-0.15,0.26
17.909,-0.18,-0.03,-0.14,0.23
17.919,-0.14,0.01,-0.08,0.16
17.929,-0.09,0.02,0.01,0.10
17.939,-0.03,0.02,-0.02,0.04
17.949,0.00,-0.02,-0.08,0.08
17.959,-0.01,-0.02,-0.10,0.11
17.969,-0.03,-0.02,-0.12,0.12
17.979,-0.08,-0.02,-0.09,0.12
17.989,-0.11,0.02,-0.02,0.11
18.000,-0.13,0.04,-0.02,0.14
18.009,-0.14,0.05,-0.02,0.15
18.019,-0.11,0.03,-0.03,0.12
18.029,-0.11,-0.00,-0.07,0.13
18.040,-0.10,-0.00,-0.09,0.13
18.049,-0.09,-0.03,-0.05,0.11
18.059,-0.09,-0.00,-0.03,0.10
18.069,-0.13,0.00,-0.10,0.17
18.079,-0.15,0.00,-0.14,0.20
18.089,-0.17,0.04,-0.07,0.19
18.099,-0.11,0.03,-0.02,0.12
18.109,-0.01,0.03,-0.02,0.04
18.119,0.03,0.05,-0.02,0.06
18.129,-0.01,0.06,-0.02,0.06
18.140,-0.05,0.08,-0.01,0.10
18.149,-0.09,0.06,-0.01,0.11
18.159,-0.10,0.04,-0.04,0.12
18.170,-0.09,0.00,-0.07,0.12
18.180,-0.06,-0.02,-0.08,0.10
18.190,-0.07,-0.02,-0.07,0.10
18.200,-0.06,0.01,-0.00,0.06
18.210,-0.05,-0.01,0.03,0.06
18.220,-0.09,-0.03,0.05,0.11
18.230,-0.08,-0.05,-0.00,0.09
18.240,-0.13,-0.07,-0.00,0.15
18.250,-0.17,-0.04,0.01,0.18
18.260,-0.12,-0.03,-0.00,0.13
18.269,-0.15,-0.01,-0.01,0.15
18.280,-0.12,0.00,-0.01,0.12
18.289,-0.09,0.02,-0.02,0.09
18.300,-0.10,0.02,0.01,0.10
18.310,-0.08,0.02,0.07,0.10
18.319,-0.08,0.01,0.06,0.11
18.330,-0.10,0.03,0.05,0.12
18.340,-0.13,0.04,0.08,0.16
18.349,-0.19,0.06,0.11,0.23
18.360,-0.16,0.10,0.11,0.21
18.370,-0.14,0.05,0.08,0.17
18.380,-0.06,-0.01,0.01,0.07
18.390,-0.04,-0.05,-0.04,0.08
18.400,-0.02,-0.07,-0.15,0.17
18.410,0.04,-0.07,-0.24,0.25
18.420,0.09,-0.05,-0.26,0.28
18.430,0.07,-0.04,-0.24,0.26
18.440,0.09,-0.01,-0.19,0.21
18.450,0.00,-0.01,-0.19,0.19
18.460,-0.06,-0.01,-0.24,0.25
18.470,-0.10,-0.02,-0.29,0.31
18.480,-0.14,-0.01,-0.25,0.29
18.490,-0.18,0.00,-0.20,0.27
18.500,-0.21,0.02,-0.18,0.28
18.510,-0.22,0.02,-0.18,0.29
18.520,-0.17,-0.02,-0.16,0.24
18.530,-0.12,-0.00,-0.07,0.14
18.540,-0.18,0.04,0.05,0.19
18.550,-0.28,0.07,0.01,0.28
18.560,-0.23,0.03,-0.05,0.24
18.570,-0.20,-0.02,-0.09,0.22
18.580,-0.16,-0.05,-0.07,0.18
18.590,-0.10,-0.05,-0.01,0.11
18.600,-0.08,-0.04,0.04,0.10
18.610,-0.02,-0.03,0.06,0.07
18.620,0.00,-0.05,0.04,0.07
18.630,-0.03,-0.08,-0.02,0.09
18.640,-0.06,-0.07,-0.01,0.09
18.650,-0.07,-0.06,0.01,0.10
18.660,-0.12,-0.01,0.05,0.13
18.670,-0.12,0.02,0.14,0.18
18.680,-0.10,0.01,0.10,0.14
18.690,-0.10,-0.00,-0.05,0.12
18.700,-0.09,-0.01,-0.15,0.17
18.710,-0.11,0.01,-0.10,0.15
18.720,-0.12,0.01,-0.01,0.12
18.730,-0.12,0.08,0.04,0.15
18.740,-0.14,0.06,0.07,0.16
18.750,-0.12,0.03,0.02,0.12
18.760,-0.11,-0.01,-0.03,0.12
18.770,-0.14,-0.01,-0.05,0.15
18.780,-0.11,-0.01,-0.05,0.12
18.790,-0.08,-0.05,-0.08,0.12
18.800,-0.05,-0.08,-0.12,0.15
18.810,-0.03,-0.08,-0.15,0.17
18.820,-0.08,-0.06,-0.11,0.15
18.830,-0.11,-0.02,-0.04,0.12
18.840,-0.12,0.00,0.02,0.12
18.850,-0.11,-0.01,-0.00,0.11
18.860,-0.11,-0.02,-0.01,0.11
18.870,-0.12,-0.02,0.02,0.12
18.880,-0.11,0.01,0.03,0.12
18.890,-0.11,0.03,0.09,0.15
18.900,-0.04,0.02,0.11,0.12
18.910,0.04,-0.02,0.09,0.09
18.920,0.00,-0.03,0.09,0.09
18.930,-0.06,-0.02,0.08,0.10
18.940,-0.12,0.01,0.07,0.14
18.950,-0.13,0.01,0.04,0.14
18.960,-0.13,0.02,0.00,0.13
18.970,-0.15,0.06,0.01,0.16
18.980,-0.16,0.08,0.07,0.19
18.990,-0.18,0.06,0.10,0.21
19.000,-0.14,0.04,0.05,0.15
19.010,-0.10,-0.01,-0.06,0.12
19.020,-0.07,-0.03,-0.11,0.13
19.030,-0.06,-0.07,-0.16,0.18
19.040,-0.03,-0.07,-0.21,0.22
19.050,-0.03,-0.02,-0.20,0.21
19.060,-0.06,0.01,-0.11,0.13
19.070,-0.05,0.03,-0.08,0.10
19.080,-0.06,0.04,-0.07,0.10
19.090,-0.07,0.02,-0.05,0.09
19.100,-0.07,0.02,-0.09,0.12
19.110,-0.10,0.01,-0.08,0.13
19.120,-0.13,0.01,-0.06,0.15
19.130,-0.13,0.01,-0.05,0.14
19.140,-0.12,0.01,-0.04,0.13
19.150,-0.15,-0.02,-0.04,0.15
19.160,-0.12,-0.04,-0.03,0.13
19.170,-0.10,-0.03,0.03,0.10
19.180,-0.11,-0.02,0.00,0.12
19.190,-0.12,-0.02,-0.04,0.13
19.200,-0.13,0.01,0.05,0.14
19.210,-0.13,0.01,0.08,0.15
19.220,-0.12,0.03,0.04,0.14
19.230,-0.11,0.04,0.02,0.12
19.240,-0.08,0.03,0.03,0.09
19.250,-0.09,0.03,-0.04,0.10
19.260,-0.09,0.01,-0.04,0.10
19.270,-0.11,0.02,-0.06,0.12
19.280,-0.11,-0.00,0.00,0.11
19.290,-0.07,0.02,0.01,0.08
19.300,-0.11,0.02,-0.04,0.11
19.310,-0.13,0.04,0.01,0.14
19.320,-0.16,0.06,0.04,0.17
19.330,-0.16,0.05,-0.02,0.17
19.340,-0.11,0.04,-0.06,0.13
19.350,-0.09,0.01,-0.14,0.17
19.360,-0.10,0.01,-0.20,0.23
19.370,-0.07,0.04,-0.13,0.16
19.380,-0.07,0.08,0.02,0.11
19.390,-0.05,0.05,0.08,0.11
19.400,-0.08,0.07,-0.04,0.11
19.410,-0.06,-0.02,-0.12,0.14
19.420,-0.07,-0.07,-0.18,0.21
19.430,-0.11,-0.07,-0.21,0.25
19.440,-0.11,-0.06,-0.10,0.16
19.450,-0.11,-0.04,-0.06,0.14
19.460,-0.05,-0.00,-0.02,0.05
19.471,-0.04,0.01,0.03,0.05
19.481,-0.06,0.05,0.04,0.08
19.491,-0.03,0.06,0.02,0.07
19.500,-0.04,0.05,0.02,0.07
19.511,-0.10,0.07,-0.01,0.12
19.521,-0.11,0.08,0.02,0.14
19.531,-0.10,0.07,0.02,0.12
19.541,-0.12,0.05,-0.00,0.13
19.550,-0.14,0.00,-0.01,0.14
19.560,-0.13,0.00,0.03,0.14
19.571,-0.13,-0.03,0.03,0.13
19.580,-0.14,-0.04,0.02,0.15
19.590,-0.14,-0.03,0.02,0.15
19.600,-0.11,-0.04,-0.00,0.12
19.610,-0.06,-0.05,-0.03,0.09
19.621,0.00,-0.05,-0.02,0.06
19.631,0.03,-0.05,0.08,0.10
19.641,0.02,-0.04,0.04,0.06
19.651,0.02,-0.02,0.00,0.03
19.661,-0.06,0.01,0.04,0.07
19.670,-0.12,0.04,0.05,0.13
19.680,-0.15,0.05,0.08,0.18
19.690,-0.14,0.02,0.06,0.15
19.701,-0.10,-0.03,0.01,0.11
19.711,-0.09,-0.08,-0.04,0.13
19.720,-0.06,-0.10,-0.10,0.16
19.731,-0.04,-0.12,-0.15,0.20
19.741,-0.03,-0.08,-0.14,0.16
19.751,-0.07,-0.04,-0.08,0.11
19.761,-0.10,0.01,-0.02,0.10
19.771,-0.10,0.04,-0.02,0.11
19.781,-0.09,0.05,-0.08,0.13
19.791,-0.10,0.04,-0.11,0.16
19.801,-0.09,0.02,-0.12,0.15
19.811,-0.06,0.01,-0.18,0.19
19.821,-0.09,0.03,-0.15,0.18
19.831,-0.13,0.05,-0.09,0.16
19.841,-0.17,0.02,-0.09,0.19
19.851,-0.19,0.02,-0.18,0.26
19.861,-0.18,-0.03,-0.19,0.26
19.871,-0.15,-0.06,-0.11,0.19
19.881,-0.11,0.01,-0.13,0.17
19.891,-0.06,0.00,-0.07,0.09
19.901,-0.07,0.00,-0.02,0.07
19.911,-0.07,0.02,0.05,0.09
19.921,-0.07,0.03,0.12,0.14
19.931,-0.10,0.00,0.07,0.13
19.941,-0.10,-0.01,0.05,0.12
19.951,-0.08,-0.03,0.10,0.13
19.961,-0.05,-0.02,0.13,0.14
19.971,-0.08,0.01,0.12,0.14
19.981,-0.06,0.03,0.11,0.13
19.991,-0.02,0.03,0.04,0.05
20.001,-0.03,0.03,0.02,0.05
20.011,-0.11,0.02,0.06,0.12
20.021,-0.13,0.01,0.04,0.13
20.031,-0.13,0.04,0.02,0.13
20.041,-0.11,0.01,-0.04,0.12
20.051,-0.14,0.00,-0.09,0.16
20.061,-0.09,-0.00,-0.13,0.16
20.071,-0.06,-0.03,-0.16,0.17
20.081,-0.04,0.00,-0.13,0.14
20.091,-0.08,0.02,-0.08,0.12
20.101,-0.13,0.02,-0.07,0.15
20.111,-0.16,0.02,-0.09,0.18
20.121,-0.14,0.02,-0.11,0.18
20.131,-0.16,0.04,-0.12,0.20
20.141,-0.14,0.06,-0.08,0.17
20.151,-0.04,0.02,-0.07,0.09
20.161,-0.02,0.02,-0.15,0.15
20.171,-0.05,0.03,-0.19,0.20
20.181,0.06,-0.07,-0.14,0.17
20.191,-0.03,-0.05,-0.14,0.15
20.201,-0.03,-0.03,-0.06,0.07
20.211,-0.10,0.02,-0.03,0.11
20.221,-0.10,0.03,-0.06,0.12
20.231,-0.08,0.04,-0.06,0.11
20.241,-0.05,0.04,-0.02,0.07
20.251,-0.04,0.03,-0.04,0.06
20.261,-0.05,0.00,-0.07,0.08
20.271,-0.10,0.02,-0.04,0.11
20.281,-0.15,0.06,-0.06,0.17
20.291,-0.20,0.09,-0.08,0.23
20.301,-0.17,0.10,-0.06,0.20
20.311,-0.12,0.11,-0.04,0.17
20.321,-0.13,0.08,-0.08,0.17
20.331,-0.14,0.04,-0.10,0.18
20.341,-0.18,0.01,-0.11,0.21
20.351,-0.22,-0.04,-0.10,0.24
20.361,-0.21,-0.04,-0.09,0.23
20.371,-0.23,-0.02,-0.07,0.24
20.381,-0.20,0.00,-0.01,0.20
20.391,-0.12,0.01,0.05,0.13
20.401,-0.07,-0.00,-0.02,0.07
20.411,-0.02,-0.06,-0.11,0.13
20.421,0.03,-0.11,-0.12,0.17
20.431,0.07,-0.14,-0.15,0.22
20.441,0.03,-0.09,-0.11,0.15
20.451,-0.03,-0.04,-0.02,0.05
20.461,-0.08,0.02,0.02,0.08
20.471,-0.08,0.04,0.01,0.09
20.481,-0.09,0.02,0.02,0.09
20.491,-0.08,-0.00,0.01,0.08
20.501,-0.08,-0.04,-0.03,0.09
20.511,-0.07,-0.05,-0.01,0.09
20.521,-0.05,-0.04,0.01,0.07
20.531,-0.02,-0.05,-0.00,0.05
20.541,-0.05,-0.02,0.01,0.06
20.551,-0.09,-0.01,0.07,0.12
20.561,-0.15,0.04,0.09,0.18
20.571,-0.17,0.05,0.09,0.20
20.581,-0.16,0.05,0.04,0.17
20.591,-0.13,0.04,-0.05,0.14
20.601,-0.14,0.07,-0.05,0.17
20.611,-0.16,0.05,-0.01,0.17
20.621,-0.13,0.05,-0.02,0.14
20.631,-0.09,0.03,0.03,0.10
20.641,-0.08,0.02,0.02,0.08
20.651,-0.09,0.01,-0.02,0.09
20.661,-0.11,0.00,-0.07,0.14
20.671,-0.08,0.01,-0.07,0.11
20.681,-0.06,0.03,-0.06,0.09
20.691,-0.03,0.04,-0.03,0.06
20.701,0.04,0.03,-0.02,0.05
20.711,0.03,0.04,-0.01,0.05
20.721,-0.01,0.03,0.01,0.03
20.731,-0.07,0.02,0.01,0.08
20.741,-0.09,0.01,0.01,0.09
20.751,-0.10,0.02,-0.03,0.11
20.761,-0.11,0.01,-0.02,0.11
20.771,-0.16,-0.01,-0.00,0.16
20.781,-0.16,-0.03,-0.00,0.16
20.791,-0.12,-0.08,-0.04,0.15
20.801,-0.08,-0.10,-0.04,0.13
20.811,-0.08,-0.07,-0.02,0.11
20.821,-0.12,-0.02,-0.04,0.13
20.831,-0.13,0.05,-0.02,0.14
20.841,-0.09,0.05,0.03,0.11
20.851,-0.09,0.01,-0.01,0.10
20.862,-0.09,-0.03,-0.04,0.10
20.871,-0.11,-0.04,-0.03,0.12
20.881,-0.17,-0.04,-0.06,0.18
20.891,-0.14,-0.04,-0.08,0.17
20.901,-0.11,-0.05,-0.04,0.13
20.911,-0.09,-0.02,-0.05,0.10
20.922,-0.11,0.01,-0.01,0.11
20.932,-0.14,-0.01,-0.05,0.14
20.942,-0.10,-0.03,-0.12,0.16
20.951,-0.11,-0.03,-0.09,0.14
20.962,-0.07,-0.03,-0.01,0.07
20.972,-0.02,-0.01,-0.01,0.02
20.982,-0.03,0.01,0.02,0.04
20.991,-0.05,-0.01,0.02,0.06
21.001,-0.06,0.01,-0.02,0.06
21.011,-0.08,0.01,-0.00,0.08
21.022,-0.09,0.00,0.04,0.09
21.032,-0.11,0.01,0.03,0.12
21.042,-0.10,0.02,0.01,0.11
21.052,-0.07,0.03,-0.01,0.08
21.062,-0.05,0.04,-0.04,0.08
21.071,-0.12,0.03,-0.01,0.12
21.082,-0.17,0.05,-0.03,0.18
21.091,-0.18,0.05,-0.03,0.19
21.102,-0.16,0.02,-0.09,0.18
21.112,-0.15,-0.00,-0.13,0.19
21.122,-0.15,-0.00,-0.11,0.18
21.132,-0.12,-0.01,-0.08,0.15
21.142,-0.12,-0.02,-0.01,0.13
21.152,-0.15,-0.07,-0.01,0.16
21.162,-0.19,-0.06,-0.09,0.21
21.172,-0.16,-0.06,-0.12,0.21
21.182,-0.16,-0.06,-0.07,0.18
21.192,-0.15,-0.04,-0.03,0.15
21.202,-0.13,-0.01,-0.03,0.14
21.212,-0.08,0.01,-0.02,0.09
21.222,-0.04,0.03,-0.00,0.05
21.232,-0.06,0.03,0.03,0.08
21.242,-0.11,0.07,0.04,0.13
21.252,-0.18,0.11,0.10,0.23
21.262,-0.17,0.10,0.19,0.28
21.272,-0.22,0.12,0.24,0.35
21.282,-0.27,0.12,0.31,0.43
21.292,-0.33,0.11,0.36,0.50
21.302,-0.35,0.11,0.43,0.57
21.312,-0.38,0.12,0.56,0.69
21.322,-0.47,0.18,0.74,0.89
21.332,-0.58,0.20,0.92,1.11
21.342,-0.66,0.27,1.02,1.24
21.352,-0.70,0.32,1.24,1.46
21.362,-0.62,0.16,1.46,1.60
21.372,-0.55,0.01,1.69,1.77
21.382,-0.44,-0.06,1.91,1.96
21.392,-0.35,-0.18,2.02,2.05
21.402,-0.06,-0.21,1.90,1.92
21.412,-0.01,-0.21,1.59,1.60
21.422,-0.19,-0.00,1.45,1.47
21.432,0.19,0.43,1.37,1.45
21.442,0.36,0.61,1.55,1.71
21.452,0.61,0.74,1.85,2.09
21.462,1.32,0.87,2.00,2.55
21.472,1.81,0.52,2.26,2.94
21.482,2.48,0.01,2.23,3.34
21.492,3.00,-0.18,1.87,3.53
21.502,3.21,-0.30,1.62,3.61
21.512,2.86,-0.44,1.62,3.32
21.522,2.12,-0.30,1.74,2.76
21.532,1.13,-0.22,1.96,2.28
21.542,-0.15,0.02,1.64,1.65
21.552,-0.61,0.77,1.47,1.76
21.562,-1.28,0.58,4.23,4.46
21.572,-2.77,0.11,2.88,4.00
21.582,-4.41,-0.72,3.65,5.77
21.592,-5.01,0.03,4.19,6.53
21.602,-6.72,-0.34,3.20,7.45
21.612,-5.83,0.29,1.56,6.04
21.622,-2.42,1.27,-1.53,3.13
21.632,-1.28,0.67,-2.12,2.56
21.642,-1.85,-0.37,-2.99,3.54
21.652,-3.51,-0.19,-3.86,5.22
21.662,-2.48,0.14,-4.55,5.19
21.672,-1.85,-0.67,-3.49,4.00
21.682,-2.87,-0.94,-2.38,3.85
21.692,-0.70,-1.59,-1.05,2.03
21.702,16.10,-4.81,18.46,24.96
21.712,0.98,-2.11,4.55,5.11
21.722,3.31,-2.45,9.22,10.10
21.732,-4.96,0.94,2.05,5.45
21.742,-2.05,-1.03,0.86,2.45
21.752,1.98,-3.52,0.78,4.12
21.762,4.82,-5.12,0.38,7.04
21.772,5.74,-7.35,0.28,9.33
21.782,5.24,-6.85,0.38,8.63
21.792,4.49,-5.83,0.95,7.42
21.802,2.64,-4.47,0.79,5.25
21.812,1.65,-3.40,0.56,3.82
21.822,1.81,-3.41,0.04,3.86
21.832,1.73,-3.77,-0.30,4.16
21.842,1.09,-3.76,-0.37,3.93
21.852,0.40,-3.40,-0.52,3.47
21.862,0.25,-2.86,-0.77,2.97
21.872,0.69,-2.49,-1.33,2.91
21.882,0.84,-2.25,-2.04,3.15
21.892,0.62,-1.82,-2.42,3.09
21.902,0.51,-1.46,-2.66,3.08
21.912,0.37,-1.17,-2.63,2.90
21.922,0.24,-1.15,-2.17,2.47
21.932,0.20,-1.20,-1.79,2.16
21.942,0.08,-1.21,-1.64,2.04
21.952,0.13,-1.07,-1.28,1.68
21.962,0.59,-0.87,-0.70,1.26
21.972,1.15,-0.70,-0.18,1.36
21.982,1.13,-0.62,0.52,1.39
21.992,-0.05,-1.23,1.17,1.70
22.002,-0.18,-1.40,1.03,1.75
22.012,0.23,-1.15,0.67,1.35
22.022,0.33,-0.80,0.21,0.89
22.032,0.07,-0.60,-0.19,0.64
22.042,0.04,-0.56,-0.47,0.73
22.052,-0.13,-0.77,-0.67,1.02
22.062,-0.51,-1.08,-0.88,1.48
22.072,-0.72,-1.08,-0.88,1.57
22.082,-0.60,-0.94,-0.71,1.33
22.092,-0.35,-0.83,-0.59,1.07
22.103,-0.02,-0.59,-0.51,0.78
22.112,0.11,-0.45,-0.67,0.82
22.122,0.32,-0.19,-0.79,0.87
22.132,0.54,-0.04,-0.66,0.85
22.142,0.61,-0.02,-0.27,0.67
22.152,0.66,0.02,0.23,0.70
22.162,0.75,-0.03,0.67,1.01
22.172,0.42,-0.23,0.60,0.77
22.182,0.21,-0.33,0.18,0.44
22.192,0.37,-0.27,-0.38,0.59
22.202,0.48,-0.00,-0.78,0.92
22.212,0.44,0.27,-0.92,1.06
22.222,0.20,0.25,-0.94,0.99
22.232,-0.12,0.06,-0.96,0.97
22.242,-0.33,-0.10,-0.97,1.03
22.252,-0.49,-0.18,-0.89,1.03
22.262,-0.52,-0.20,-0.56,0.79
22.272,-0.19,-0.28,-0.39,0.52
22.282,0.15,-0.37,-0.24,0.46
22.292,0.19,-0.41,-0.02,0.45
22.303,0.11,-0.38,0.15,0.43
22.312,0.14,-0.35,0.24,0.45
22.324,0.28,-0.38,0.46,0.66
22.333,0.34,-0.20,1.19,1.26
22.342,-0.59,-0.15,0.61,0.86
22.352,-1.02,-0.43,0.82,1.38
22.363,-0.28,-0.59,1.09,1.27
22.373,0.28,-0.53,1.17,1.32
22.383,0.47,-0.38,0.77,0.97
22.393,0.85,-0.58,-0.28,1.07
22.402,0.76,-0.47,-1.47,1.72
22.413,0.32,-0.05,-2.41,2.44
22.422,0.16,0.24,-2.78,2.79
22.432,-0.46,0.06,-2.81,2.85
