time,ax,ay,az,atotal
0.000,0.11,0.03,-0.05,0.13
0.010,0.09,0.18,-0.16,0.26
0.020,0.03,0.30,-0.18,0.35
0.030,0.10,0.31,-0.15,0.36
0.040,0.09,0.29,-0.03,0.30
0.050,-0.02,0.24,0.10,0.26
0.060,-0.07,0.21,0.10,0.25
0.070,-0.04,0.13,0.05,0.14
0.080,0.00,0.07,-0.00,0.07
0.090,-0.01,0.08,-0.07,0.11
0.100,0.01,0.09,-0.06,0.11
0.110,0.04,0.06,-0.07,0.10
0.120,0.08,0.03,-0.12,0.15
0.130,0.08,0.01,-0.21,0.23
0.140,0.02,0.01,-0.23,0.23
0.150,-0.01,0.04,-0.21,0.21
0.160,-0.06,0.12,-0.22,0.26
0.170,-0.10,0.19,-0.24,0.32
0.180,-0.10,0.21,-0.30,0.38
0.190,-0.11,0.25,-0.31,0.41
0.200,-0.19,0.22,-0.19,0.35
0.210,-0.23,0.18,-0.05,0.30
0.220,-0.21,0.13,-0.05,0.25
0.230,-0.16,0.04,-0.08,0.18
0.240,-0.15,-0.05,-0.05,0.16
0.250,-0.13,-0.12,-0.02,0.18
0.260,-0.08,-0.13,-0.07,0.16
0.270,-0.07,-0.16,-0.09,0.20
0.280,-0.09,-0.20,-0.05,0.23
0.290,-0.11,-0.20,-0.01,0.23
0.300,-0.05,-0.18,0.01,0.19
0.310,-0.05,-0.21,0.01,0.22
0.320,-0.12,-0.17,-0.03,0.21
0.330,-0.21,-0.15,-0.02,0.26
0.340,-0.23,-0.17,0.05,0.29
0.350,-0.20,-0.18,0.07,0.28
0.360,-0.19,-0.19,0.07,0.28
0.370,-0.21,-0.16,0.10,0.28
0.380,-0.18,-0.15,0.11,0.26
0.390,-0.14,-0.11,0.07,0.19
0.400,-0.03,-0.05,0.07,0.09
0.410,0.06,-0.03,0.10,0.12
0.420,0.05,-0.07,0.13,0.16
0.430,0.02,-0.02,0.11,0.11
0.440,-0.03,0.02,0.04,0.06
0.450,-0.05,0.03,-0.04,0.07
0.460,-0.01,0.01,-0.14,0.14
0.470,0.02,0.07,-0.21,0.23
0.480,-0.04,0.20,-0.13,0.24
0.490,-0.13,0.28,0.06,0.31
0.500,-0.25,0.26,0.10,0.38
0.510,-0.34,0.16,0.00,0.37
0.520,-0.17,0.11,-0.10,0.22
0.530,-0.29,0.16,-0.15,0.36
0.540,-0.41,0.21,-0.06,0.46
0.550,-0.49,0.19,0.01,0.52
0.560,-0.47,0.18,-0.06,0.50
0.570,-0.33,0.16,-0.21,0.42
0.580,-0.19,0.12,-0.26,0.35
0.590,-0.08,0.12,-0.19,0.24
0.600,-0.01,0.05,-0.12,0.13
0.610,-0.06,0.12,-0.10,0.17
0.620,0.06,0.14,-0.06,0.16
0.630,0.13,0.07,-0.01,0.15
0.640,0.14,-0.01,-0.05,0.14
0.650,0.09,-0.08,-0.09,0.15
0.660,-0.01,-0.06,-0.10,0.12
0.670,-0.13,-0.04,-0.12,0.18
0.680,-0.20,-0.03,-0.08,0.22
0.690,-0.22,0.01,-0.11,0.25
0.700,-0.06,0.19,-0.24,0.32
0.710,0.09,0.06,-0.03,0.12
0.720,0.16,-0.19,0.17,0.30
0.730,0.11,-0.08,0.11,0.18
0.740,-0.05,0.09,0.05,0.12
0.750,-0.09,0.24,0.02,0.26
0.760,-0.12,0.20,0.11,0.26
0.770,-0.18,0.11,0.22,0.30
0.780,-0.10,-0.03,0.19,0.22
0.790,0.00,-0.14,0.07,0.16
0.800,0.02,-0.25,-0.03,0.25
0.810,0.06,-0.23,-0.09,0.26
0.820,0.15,-0.13,-0.19,0.28
0.830,0.12,-0.08,-0.28,0.32
0.840,-0.01,-0.08,-0.25,0.26
0.850,-0.23,-0.06,-0.16,0.29
0.860,-0.29,-0.10,0.00,0.31
0.870,-0.21,-0.08,0.04,0.23
0.880,-0.17,0.03,0.32,0.36
0.890,-0.16,0.05,0.18,0.25
0.901,-0.15,-0.02,-0.09,0.17
0.910,-0.31,-0.05,-0.25,0.40
0.920,-0.45,0.05,-0.23,0.51
0.931,-0.47,0.14,-0.05,0.50
0.940,-0.49,0.16,0.09,0.52
0.950,-0.61,0.18,0.14,0.66
0.960,-0.54,0.22,0.12,0.59
0.970,-0.28,0.26,-0.04,0.39
0.981,-0.14,0.23,-0.12,0.29
0.991,-0.13,0.18,-0.02,0.22
1.001,-0.21,0.04,0.05,0.22
1.011,-0.32,-0.16,0.07,0.37
1.021,-0.23,-0.21,0.03,0.31
1.031,-0.28,-0.29,-0.17,0.44
1.041,-0.44,-0.34,-0.08,0.56
1.051,-0.26,-0.11,0.06,0.29
1.061,-0.17,0.30,-0.00,0.34
1.071,-0.08,0.53,0.12,0.55
1.081,-0.04,0.52,0.37,0.64
1.091,-0.17,0.41,0.50,0.67
1.101,-0.33,0.49,0.44,0.74
1.111,-0.22,0.52,0.37,0.67
1.121,0.00,0.44,0.31,0.54
1.131,-0.02,0.36,0.35,0.50
1.141,-0.12,0.16,0.57,0.60
1.151,-0.22,-0.01,0.77,0.80
1.161,-0.12,-0.11,0.90,0.92
1.171,-0.01,-0.21,0.76,0.79
1.181,0.02,-0.29,0.50,0.58
1.191,0.18,-0.29,0.34,0.48
1.201,0.34,-0.24,0.05,0.42
1.211,0.35,-0.14,-0.24,0.45
1.221,0.44,-0.05,-0.29,0.53
1.231,0.51,0.09,-0.27,0.58
1.241,0.52,0.17,-0.23,0.60
1.251,0.34,0.11,-0.22,0.42
1.261,0.23,0.10,-0.16,0.30
1.271,-0.01,0.08,-0.11,0.14
1.281,-0.29,0.03,-0.10,0.31
1.291,-0.51,-0.04,-0.15,0.53
1.301,-0.48,-0.14,-0.08,0.51
1.311,-0.45,-0.18,-0.19,0.52
1.321,-0.28,-0.23,-0.36,0.52
1.331,-0.08,-0.31,-0.53,0.62
1.341,-0.06,-0.28,-0.39,0.48
1.351,-0.18,-0.16,-0.22,0.32
1.361,-0.14,-0.00,-0.17,0.22
1.371,0.01,0.23,-0.15,0.27
1.381,0.02,0.30,-0.13,0.33
1.391,-0.05,0.23,-0.23,0.33
1.401,-0.07,0.14,-0.35,0.38
1.411,-0.05,0.09,-0.33,0.34
1.421,-0.08,0.02,-0.29,0.30
1.431,-0.18,-0.06,-0.32,0.37
1.441,-0.28,-0.04,-0.32,0.43
1.451,-0.32,-0.01,-0.24,0.40
1.461,-0.34,-0.00,-0.15,0.38
1.471,-0.34,-0.04,-0.17,0.39
1.481,-0.27,-0.11,-0.20,0.35
1.491,-0.20,-0.14,-0.31,0.40
1.501,-0.10,-0.10,-0.28,0.31
1.511,-0.05,-0.03,-0.27,0.28
1.521,-0.05,0.05,-0.37,0.38
1.531,-0.15,0.03,-0.31,0.34
1.541,-0.29,-0.06,-0.04,0.30
1.551,-0.24,-0.05,0.14,0.28
1.561,-0.21,0.08,0.20,0.30
1.571,0.07,0.14,0.32,0.35
1.581,0.31,0.10,0.24,0.40
1.591,0.28,0.10,0.09,0.31
1.601,0.10,0.00,0.04,0.10
1.611,0.19,-0.11,0.14,0.26
1.621,0.35,-0.15,0.09,0.39
1.631,0.52,-0.11,-0.06,0.54
1.641,0.61,-0.12,-0.12,0.63
1.651,0.51,-0.13,-0.08,0.53
1.661,0.37,-0.15,-0.06,0.40
1.671,0.25,-0.08,0.11,0.28
1.681,0.05,0.03,0.36,0.37
1.691,-0.28,0.23,0.52,0.63
1.701,-0.37,0.37,0.44,0.69
1.711,-0.37,0.45,0.10,0.60
1.721,-0.52,0.36,-0.26,0.68
1.731,-0.70,0.07,-0.49,0.86
1.741,-0.64,-0.11,-0.41,0.77
1.751,-0.56,-0.19,-0.45,0.74
1.761,-0.45,-0.13,-0.37,0.60
1.771,-0.25,0.09,-0.29,0.39
1.781,-0.15,0.21,-0.20,0.33
1.791,0.02,0.27,0.03,0.27
1.801,-0.07,0.82,0.11,0.83
1.811,0.01,1.09,0.39,1.16
1.821,0.11,0.46,0.41,0.62
1.831,0.04,-0.12,0.18,0.22
1.841,-0.05,-0.23,0.02,0.24
1.851,0.03,-0.16,-0.11,0.20
1.861,0.10,-0.08,-0.29,0.32
1.871,-0.04,-0.11,-0.35,0.37
1.881,0.02,-0.14,-0.29,0.32
1.891,-0.01,-0.02,-0.33,0.33
1.901,-0.13,0.07,-0.28,0.32
1.911,-0.06,-0.18,-0.26,0.32
1.921,-0.12,-0.48,-0.36,0.61
1.931,-0.27,-0.69,-0.19,0.77
1.941,-0.27,-0.70,-0.08,0.76
1.951,-0.30,-0.70,-0.25,0.80
1.961,-0.20,-0.74,-0.33,0.84
1.971,0.00,-0.76,-0.27,0.81
1.981,0.12,-0.61,-0.15,0.64
1.991,0.22,-0.17,-0.06,0.29
2.001,0.16,0.34,0.07,0.38
2.011,-0.20,0.57,0.30,0.67
2.021,-0.52,0.02,0.59,0.79
2.031,-0.39,-0.51,0.12,0.65
2.041,-0.52,-0.71,-0.25,0.91
2.051,-0.98,-0.87,0.04,1.32
2.061,-1.09,-0.74,0.41,1.38
2.071,-0.96,-0.68,0.57,1.31
2.082,-0.72,-0.66,0.40,1.06
2.092,-0.67,-0.55,0.22,0.90
2.101,-0.52,-0.55,0.12,0.77
2.111,-0.88,-0.38,0.08,0.96
2.122,-1.03,0.10,0.48,1.14
2.131,-0.57,0.22,0.73,0.95
2.142,-0.26,0.19,0.27,0.42
2.151,-1.09,-0.03,0.35,1.15
2.161,-0.59,0.35,0.62,0.93
2.172,-0.13,0.59,1.03,1.19
2.182,0.07,0.39,0.98,1.06
2.191,0.33,0.64,0.29,0.77
2.201,-0.19,0.70,-0.21,0.75
2.212,0.27,0.97,-1.40,1.72
2.222,0.33,0.87,-3.21,3.35
2.232,0.70,0.96,-3.68,3.86
2.242,1.65,0.85,-2.48,3.10
2.252,1.65,0.59,0.70,1.89
2.262,0.66,0.81,1.42,1.76
2.272,0.12,0.72,1.65,1.81
2.282,0.18,0.56,1.21,1.35
2.292,0.56,0.64,0.58,1.03
2.302,0.90,0.54,-0.10,1.06
2.312,0.97,0.31,-0.41,1.09
2.322,0.87,-0.00,-0.53,1.02
2.332,0.66,-0.27,-0.26,0.76
2.342,0.46,-0.57,-0.05,0.74
2.352,-0.03,-0.82,-0.01,0.82
2.362,-0.81,-0.55,0.28,1.02
2.372,-1.23,0.15,0.70,1.42
2.382,-0.58,0.74,-0.00,0.94
2.392,0.76,1.04,-0.80,1.52
2.402,0.17,0.99,-0.01,1.01
2.412,0.35,0.09,-0.36,0.51
2.422,-0.01,-0.71,-0.46,0.85
2.432,-0.83,-0.93,-0.42,1.32
2.442,-0.25,-0.50,-0.43,0.71
2.452,1.43,0.50,-0.09,1.52
2.462,1.08,1.00,1.20,1.90
2.472,0.74,1.05,1.00,1.63
2.482,0.96,0.72,0.32,1.24
2.492,0.70,0.15,0.31,0.78
2.502,0.61,-0.21,0.26,0.69
2.512,0.10,-0.20,0.29,0.37
2.522,-0.27,-0.04,0.25,0.37
2.532,-0.61,0.07,0.43,0.75
2.542,-0.98,0.09,0.65,1.18
2.552,-0.82,0.27,0.64,1.07
2.562,-0.47,0.57,0.27,0.79
2.572,-0.54,0.72,0.07,0.91
2.582,-0.63,0.78,-0.04,1.00
2.592,-0.49,0.59,-0.22,0.80
2.602,-0.30,0.12,-0.70,0.77
2.612,-0.40,-0.31,-0.89,1.02
2.622,-0.43,-0.56,-0.69,0.99
2.632,0.12,-0.58,-0.44,0.74
2.642,0.20,-0.40,-0.46,0.64
2.652,0.19,-0.06,-0.35,0.40
2.662,0.14,0.44,-0.38,0.60
2.672,0.22,0.55,0.18,0.62
2.682,0.45,0.41,0.44,0.75
2.692,0.79,0.19,-0.15,0.83
2.702,0.90,0.22,-0.70,1.16
2.712,0.42,0.10,-0.44,0.62
2.722,0.17,-0.06,0.18,0.26
2.732,-0.22,0.02,0.47,0.52
2.742,-0.33,-0.14,0.68,0.77
2.752,-0.27,-0.39,0.50,0.69
2.762,-0.09,-0.86,0.11,0.87
2.772,-0.15,-1.29,-1.26,1.81
2.782,0.11,-1.67,-2.62,3.11
2.792,0.54,-0.19,1.01,1.16
2.802,-0.31,-0.14,-0.23,0.41
2.812,0.26,-1.72,0.07,1.75
2.822,0.38,-2.70,0.05,2.73
2.832,-0.12,-2.41,-0.76,2.53
2.842,-0.21,-1.53,-0.60,1.66
2.852,-0.22,-1.01,-0.64,1.22
2.862,0.09,-0.73,-0.15,0.75
2.872,-0.04,-0.39,0.13,0.41
2.882,-0.33,0.22,0.19,0.44
2.892,-0.64,1.32,0.30,1.50
2.902,-0.56,1.60,0.47,1.76
2.912,-0.39,1.13,0.75,1.41
2.922,-0.90,0.74,0.98,1.52
2.932,-1.18,0.77,0.70,1.57
2.942,-1.56,0.96,0.46,1.88
2.952,-1.56,0.98,0.85,2.03
2.962,-1.20,0.73,0.86,1.65
2.972,-1.00,0.59,0.34,1.21
2.982,-0.74,0.41,-0.19,0.86
2.992,-0.47,0.33,-0.39,0.69
3.002,-0.38,0.13,-0.20,0.45
3.012,-0.25,-0.04,0.05,0.26
3.022,-0.20,-0.11,0.08,0.24
3.032,-0.06,-0.08,-0.20,0.22
3.042,0.29,0.02,-0.43,0.52
3.052,0.52,0.29,-0.57,0.82
3.062,0.61,0.45,-0.39,0.85
3.072,0.68,0.38,-0.18,0.80
3.082,0.52,0.26,-0.10,0.59
3.092,0.25,0.15,0.19,0.34
3.102,0.07,0.01,0.30,0.31
3.112,-0.18,0.04,0.13,0.23
3.122,-0.32,0.09,0.26,0.42
3.132,-0.36,0.15,0.35,0.53
3.142,-0.33,0.15,0.06,0.37
3.152,-0.45,0.17,-0.09,0.49
3.162,-0.57,0.24,-0.11,0.62
3.172,-0.37,0.26,-0.04,0.46
3.182,-0.29,0.35,-0.11,0.47
3.192,-0.31,0.40,0.09,0.52
3.202,-0.34,0.39,0.19,0.55
3.212,-0.37,0.27,0.17,0.49
3.222,-0.44,0.11,0.14,0.47
3.232,-0.43,0.06,0.14,0.45
3.242,-0.38,0.05,0.16,0.41
3.252,-0.35,0.07,0.10,0.37
3.262,-0.39,0.04,0.03,0.39
3.272,-0.28,0.02,0.06,0.29
3.282,-0.20,0.10,0.02,0.22
3.292,-0.13,0.10,0.11,0.20
3.302,-0.07,0.11,0.07,0.15
3.312,0.01,0.06,-0.04,0.08
3.322,-0.05,0.02,-0.08,0.10
3.332,0.04,-0.03,-0.17,0.17
3.342,0.07,-0.00,-0.25,0.26
3.352,-0.13,0.07,-0.16,0.22
3.362,-0.17,0.07,-0.13,0.22
3.372,-0.19,0.12,-0.14,0.27
3.382,-0.17,0.13,-0.12,0.24
3.392,-0.21,0.16,-0.13,0.29
3.402,-0.20,0.13,-0.14,0.28
3.412,-0.15,0.11,-0.12,0.22
3.422,-0.16,0.01,-0.00,0.16
3.432,-0.18,-0.11,0.01,0.21
3.442,-0.13,-0.16,0.02,0.20
3.452,-0.11,-0.22,-0.00,0.25
3.463,0.02,-0.17,-0.10,0.20
3.472,0.21,-0.10,-0.05,0.24
3.482,0.27,-0.20,-0.12,0.35
3.493,0.35,-0.22,-0.39,0.57
3.502,0.29,-0.21,-0.32,0.48
3.512,0.21,-0.19,-0.21,0.35
3.522,0.12,-0.18,-0.21,0.30
3.532,-0.03,-0.12,-0.21,0.24
3.542,-0.16,-0.08,-0.16,0.24
3.553,-0.32,-0.00,-0.12,0.34
3.562,-0.41,-0.03,-0.05,0.41
3.572,-0.48,-0.02,-0.04,0.49
3.582,-0.48,0.05,-0.08,0.49
3.593,-0.43,0.07,-0.03,0.43
3.603,-0.42,0.10,-0.01,0.43
3.613,-0.40,0.07,0.03,0.41
3.623,-0.41,0.07,0.02,0.42
3.633,-0.35,0.08,0.03,0.36
3.643,-0.29,0.02,0.03,0.29
3.653,-0.24,0.04,-0.03,0.25
3.663,-0.21,-0.05,-0.09,0.23
3.673,-0.22,-0.06,-0.12,0.26
3.683,-0.13,-0.03,-0.09,0.16
3.693,-0.08,0.02,0.02,0.09
3.703,-0.10,0.14,0.06,0.18
3.713,-0.07,0.27,0.07,0.29
3.723,-0.04,0.23,0.12,0.27
3.733,0.05,0.12,0.08,0.15
3.743,0.10,0.02,0.00,0.10
3.753,0.13,0.03,0.01,0.13
3.763,0.14,0.06,0.03,0.16
3.773,0.13,0.10,0.00,0.17
3.783,0.14,0.14,-0.09,0.22
3.793,0.11,0.07,-0.12,0.18
3.803,0.05,0.05,-0.06,0.09
3.813,0.07,0.03,-0.03,0.08
3.823,0.01,0.02,-0.02,0.03
3.833,-0.03,0.02,0.02,0.04
3.843,-0.01,0.04,-0.00,0.04
3.853,-0.08,0.02,0.03,0.09
3.863,-0.06,-0.04,0.00,0.07
3.873,-0.20,-0.03,-0.07,0.21
3.883,-0.25,-0.07,0.02,0.26
3.893,-0.21,-0.11,-0.01,0.24
3.903,-0.25,-0.07,-0.11,0.28
3.913,-0.25,-0.06,-0.17,0.31
3.923,-0.26,-0.03,-0.16,0.30
3.933,-0.18,-0.04,-0.11,0.21
3.943,-0.16,-0.03,-0.15,0.22
3.953,-0.19,0.03,-0.14,0.24
3.963,-0.20,0.01,0.01,0.21
3.973,-0.22,-0.00,0.03,0.22
3.983,-0.29,0.01,0.03,0.29
3.993,-0.17,-0.05,0.11,0.21
3.999,-0.16,-0.12,0.18,0.27
4.009,-0.24,-0.14,0.26,0.38
4.019,-0.13,-0.22,0.23,0.34
4.029,-0.04,-0.18,0.16,0.25
4.039,-0.03,-0.15,0.23,0.27
4.049,-0.05,-0.12,0.26,0.29
4.059,0.02,-0.09,0.21,0.23
4.069,0.07,-0.06,0.12,0.15
4.079,0.10,-0.04,0.08,0.13
4.089,0.04,-0.02,0.16,0.16
4.099,-0.03,-0.03,0.14,0.15
4.109,-0.05,-0.02,0.12,0.13
4.119,-0.13,-0.02,0.11,0.17
4.129,-0.18,-0.02,0.09,0.20
4.139,-0.20,0.01,0.05,0.21
4.149,-0.13,0.08,0.06,0.16
4.159,-0.11,0.11,-0.01,0.16
4.169,-0.11,0.13,-0.02,0.17
4.179,-0.07,0.15,0.06,0.18
4.189,-0.06,0.14,0.05,0.16
4.199,-0.14,0.12,0.04,0.19
4.209,-0.14,0.10,-0.01,0.17
4.219,-0.17,0.05,-0.07,0.19
4.229,-0.20,0.04,-0.22,0.30
4.239,-0.15,0.00,-0.13,0.20
4.249,-0.10,0.01,-0.02,0.11
4.259,-0.04,0.04,-0.05,0.08
4.269,-0.02,0.07,-0.10,0.13
4.279,-0.06,0.05,-0.09,0.12
4.289,-0.15,-0.00,-0.15,0.21
4.299,-0.16,0.05,-0.15,0.23
4.309,-0.12,0.14,-0.19,0.26
4.319,-0.12,0.21,-0.22,0.32
4.329,-0.17,0.18,-0.14,0.28
4.339,-0.19,0.15,-0.13,0.27
4.350,-0.12,0.14,-0.16,0.24
4.359,-0.12,0.15,-0.13,0.24
4.373,-0.14,0.19,-0.13,0.26
4.383,-0.18,0.18,-0.12,0.28
4.393,-0.24,0.15,-0.01,0.28
4.403,-0.26,0.16,0.05,0.30
4.413,-0.19,0.15,0.10,0.26
4.423,-0.17,0.14,0.11,0.25
4.433,-0.11,0.14,0.04,0.18
4.443,-0.08,0.12,-0.00,0.15
4.453,-0.11,0.08,0.06,0.15
4.463,-0.16,0.01,0.06,0.17
4.473,-0.24,-0.00,0.09,0.26
4.483,-0.34,-0.02,0.13,0.36
4.493,-0.29,-0.07,0.08,0.31
4.503,-0.17,-0.08,0.06,0.20
4.513,-0.07,-0.03,-0.00,0.08
4.523,-0.05,-0.04,-0.03,0.07
4.533,-0.03,-0.07,-0.04,0.08
4.543,-0.05,-0.12,-0.09,0.16
4.553,-0.07,-0.19,-0.14,0.24
4.563,-0.09,-0.18,-0.24,0.31
4.573,-0.06,-0.16,-0.27,0.32
4.583,-0.03,-0.10,-0.22,0.25
4.593,-0.05,-0.03,-0.26,0.26
4.603,-0.08,-0.01,-0.16,0.18
4.613,-0.08,0.02,-0.09,0.12
4.623,-0.06,0.07,-0.14,0.16
4.633,-0.06,0.08,-0.11,0.15
4.643,-0.04,0.07,0.00,0.08
4.653,0.01,0.04,0.01,0.04
4.663,0.02,0.00,-0.00,0.02
4.673,0.04,-0.00,-0.00,0.04
4.683,0.07,-0.01,-0.00,0.07
4.693,0.02,-0.00,-0.00,0.02
4.703,-0.02,0.03,-0.01,0.04
4.713,-0.06,0.09,-0.04,0.12
4.723,-0.11,0.13,-0.04,0.17
4.733,-0.30,-0.04,-0.00,0.30
4.743,-0.49,-0.14,0.04,0.51
4.753,-0.52,-0.18,0.12,0.56
4.763,-0.52,-0.16,0.13,0.56
4.773,-0.50,-0.11,0.16,0.54
4.783,-0.41,-0.07,0.17,0.45
4.793,-0.29,0.03,0.12,0.31
4.803,-0.24,0.06,0.17,0.30
4.813,-0.22,0.06,0.16,0.28
4.823,-0.22,0.04,0.14,0.26
4.833,-0.18,0.01,0.16,0.24
4.843,-0.10,-0.08,0.15,0.19
4.853,0.05,-0.10,0.09,0.14
4.863,0.12,-0.12,0.04,0.17
4.873,0.24,-0.08,-0.08,0.27
4.883,0.33,-0.03,-0.14,0.36
4.894,0.28,0.02,-0.16,0.33
4.904,0.21,0.03,-0.10,0.23
4.914,0.17,0.04,-0.02,0.18
4.924,0.16,0.10,-0.07,0.20
4.933,0.11,0.11,-0.10,0.18
4.943,0.04,0.09,-0.05,0.11
4.954,-0.03,0.09,-0.07,0.11
4.964,0.02,0.10,-0.11,0.14
4.974,0.01,0.13,-0.10,0.16
4.984,-0.05,0.16,-0.16,0.23
4.994,-0.11,0.18,-0.17,0.27
5.004,-0.13,0.15,-0.14,0.24
5.014,-0.19,0.12,-0.13,0.26
5.024,-0.28,0.08,-0.10,0.31
5.034,-0.34,0.06,-0.11,0.36
5.044,-0.31,0.06,-0.17,0.36
5.054,-0.30,-0.02,-0.09,0.31
5.064,-0.28,0.01,-0.09,0.30
5.074,-0.22,0.07,-0.19,0.30
5.084,-0.26,0.06,-0.16,0.31
5.094,-0.31,0.10,-0.17,0.37
5.104,-0.33,0.14,-0.11,0.38
5.113,-0.41,0.13,-0.04,0.43
5.124,-0.41,0.15,-0.00,0.43
5.134,-0.32,0.15,0.03,0.35
5.144,-0.23,0.12,0.04,0.26
5.154,-0.15,0.10,0.02,0.18
5.164,-0.03,0.09,-0.08,0.12
5.174,-0.03,0.07,-0.03,0.08
5.184,-0.00,0.02,0.02,0.03
5.194,-0.05,-0.04,-0.02,0.07
5.204,-0.07,-0.02,0.03,0.08
5.214,-0.13,-0.03,0.20,0.24
5.224,-0.17,-0.02,0.30,0.35
5.234,-0.18,-0.03,0.36,0.40
5.244,-0.18,-0.08,0.37,0.42
5.254,-0.05,-0.08,0.40,0.41
5.264,0.05,-0.10,0.38,0.40
5.274,0.10,-0.12,0.30,0.34
5.284,0.14,-0.13,0.24,0.31
5.294,0.20,-0.11,0.19,0.30
5.304,0.23,-0.12,0.15,0.30
5.314,0.22,-0.15,0.13,0.30
5.324,0.27,-0.19,0.02,0.33
5.334,0.25,-0.19,-0.00,0.31
5.344,0.19,-0.18,0.08,0.28
5.354,0.11,-0.13,0.11,0.20
5.364,0.13,-0.06,0.09,0.17
5.374,0.07,0.01,0.00,0.07
5.384,0.02,0.05,-0.10,0.12
5.394,-0.06,0.12,-0.17,0.22
5.404,-0.17,0.17,-0.22,0.33
5.414,-0.37,0.23,-0.17,0.47
5.424,-0.40,0.22,-0.14,0.48
5.434,-0.41,0.24,-0.16,0.50
5.444,-0.36,0.21,-0.16,0.45
5.454,-0.34,0.17,-0.16,0.42
5.464,-0.35,0.12,-0.16,0.41
5.474,-0.35,0.07,-0.20,0.41
5.484,-0.39,0.07,-0.15,0.42
5.494,-0.44,0.05,-0.04,0.44
5.504,-0.45,-0.00,0.05,0.45
5.514,-0.42,-0.02,0.03,0.42
5.524,-0.32,-0.12,0.00,0.34
5.534,-0.27,-0.21,-0.03,0.34
5.544,-0.22,-0.24,-0.10,0.34
5.554,-0.06,-0.25,-0.11,0.28
5.564,-0.04,-0.24,-0.12,0.27
5.574,-0.00,-0.14,-0.09,0.17
5.584,0.17,-0.07,-0.04,0.19
5.594,0.26,-0.02,-0.05,0.27
5.604,0.28,-0.03,-0.05,0.28
5.614,0.25,-0.07,-0.05,0.27
5.624,0.16,-0.11,-0.07,0.20
5.634,0.06,-0.11,-0.07,0.14
5.644,-0.05,-0.09,-0.12,0.15
5.654,-0.12,-0.04,-0.13,0.18
5.664,-0.14,0.01,-0.10,0.17
5.674,-0.20,0.10,-0.07,0.23
5.684,-0.23,0.19,-0.04,0.30
5.694,-0.19,0.20,0.00,0.27
5.704,-0.20,0.20,-0.00,0.28
5.714,-0.28,0.22,0.02,0.35
5.724,-0.28,0.23,0.06,0.37
5.734,-0.29,0.22,0.09,0.38
5.744,-0.29,0.15,0.07,0.33
5.754,-0.22,0.09,-0.01,0.24
5.764,-0.19,0.08,-0.01,0.21
5.774,-0.10,0.08,0.04,0.14
5.784,-0.03,0.14,-0.05,0.15
5.794,-0.02,0.12,-0.07,0.14
5.804,-0.03,0.04,-0.06,0.08
5.814,-0.07,0.02,-0.00,0.07
5.824,-0.14,-0.00,0.05,0.15
5.834,-0.26,-0.05,0.16,0.31
5.844,-0.19,-0.06,0.14,0.24
5.854,-0.11,0.00,0.05,0.12
5.864,-0.13,0.01,0.09,0.16
5.874,-0.13,-0.01,0.13,0.18
5.884,-0.00,0.00,0.01,0.01
5.894,0.02,0.02,0.01,0.03
5.904,0.01,-0.02,0.02,0.03
5.914,0.05,0.02,-0.05,0.07
5.924,-0.01,0.00,-0.06,0.06
5.934,-0.13,-0.03,-0.04,0.14
5.944,-0.21,-0.02,-0.02,0.22
5.954,-0.28,0.00,0.01,0.28
5.964,-0.36,0.04,0.06,0.37
5.974,-0.31,0.06,0.02,0.32
5.984,-0.23,0.07,-0.06,0.24
5.994,-0.14,0.08,-0.10,0.19
6.004,-0.13,0.03,-0.15,0.20
6.014,-0.15,-0.00,-0.13,0.20
6.024,-0.07,-0.00,-0.07,0.10
6.034,-0.04,-0.01,-0.10,0.11
6.044,-0.08,-0.01,-0.09,0.12
6.054,-0.11,0.00,-0.13,0.17
6.064,-0.09,-0.01,-0.07,0.12
6.074,-0.07,-0.02,-0.05,0.09
6.084,-0.04,0.00,-0.11,0.11
6.094,-0.04,0.01,-0.14,0.15
6.104,-0.10,0.01,-0.12,0.15
6.114,-0.09,0.02,-0.09,0.13
6.124,-0.13,0.08,-0.09,0.18
6.134,-0.17,0.11,-0.05,0.21
6.144,-0.19,0.08,-0.03,0.21
6.154,-0.17,0.09,0.01,0.19
6.164,-0.13,0.10,0.06,0.17
6.174,-0.12,0.09,0.08,0.17
6.184,-0.08,0.06,0.07,0.12
6.194,-0.01,0.07,0.05,0.09
6.204,0.02,0.05,0.03,0.06
6.214,0.06,0.01,0.02,0.07
6.224,0.11,-0.02,-0.06,0.12
6.234,0.12,-0.02,-0.10,0.16
6.244,0.13,-0.03,-0.09,0.16
6.254,0.08,-0.04,-0.03,0.09
6.265,0.00,-0.02,0.00,0.02
6.275,-0.05,-0.01,-0.03,0.06
6.285,-0.07,-0.06,-0.05,0.10
6.295,-0.05,-0.06,-0.09,0.12
6.304,-0.07,-0.06,-0.06,0.11
6.314,-0.11,-0.05,-0.06,0.13
6.325,-0.12,-0.04,-0.02,0.13
6.334,-0.15,-0.04,0.02,0.15
6.345,-0.14,-0.03,-0.01,0.14
6.355,-0.12,0.02,-0.04,0.12
6.365,-0.16,0.01,-0.03,0.16
6.375,-0.18,0.02,-0.05,0.19
6.385,-0.20,0.04,-0.06,0.21
6.395,-0.21,0.06,-0.02,0.22
6.405,-0.20,0.03,-0.03,0.21
6.415,-0.22,0.02,-0.05,0.22
6.425,-0.21,0.03,-0.06,0.22
6.435,-0.20,0.03,-0.03,0.20
6.445,-0.17,0.04,-0.03,0.17
6.455,-0.14,0.05,0.01,0.15
6.465,-0.10,0.07,-0.01,0.12
6.475,-0.02,0.06,-0.07,0.09
6.485,-0.03,0.06,-0.06,0.09
6.495,-0.09,0.07,-0.04,0.12
6.505,-0.09,0.08,-0.08,0.14
6.515,-0.17,0.09,-0.08,0.21
6.525,-0.21,0.06,-0.03,0.22
6.535,-0.16,0.08,-0.02,0.18
6.545,-0.19,0.08,-0.06,0.22
6.555,-0.16,0.02,-0.09,0.18
6.565,-0.12,0.04,-0.02,0.13
6.575,-0.11,0.08,-0.02,0.14
6.585,-0.08,0.09,-0.02,0.12
6.595,-0.08,0.08,-0.03,0.12
6.605,-0.08,0.09,-0.00,0.12
6.615,-0.08,0.07,0.03,0.11
6.625,-0.06,0.07,0.01,0.09
6.635,-0.13,0.07,-0.01,0.15
6.645,-0.14,0.02,-0.01,0.14
6.655,-0.15,0.01,0.01,0.15
6.665,-0.12,0.04,0.03,0.13
6.675,-0.14,0.06,0.00,0.15
6.685,-0.13,0.06,-0.02,0.15
6.695,-0.16,0.01,0.06,0.17
6.705,-0.20,-0.02,0.11,0.23
6.715,-0.15,-0.01,0.02,0.15
6.725,-0.09,-0.02,0.00,0.09
6.735,-0.10,-0.05,0.03,0.12
6.745,-0.06,-0.08,-0.04,0.11
6.755,0.00,-0.10,-0.07,0.12
6.765,-0.03,-0.12,-0.11,0.16
6.775,-0.08,-0.11,-0.11,0.17
6.785,-0.14,-0.12,-0.05,0.19
6.795,-0.15,-0.13,-0.00,0.20
6.805,-0.14,-0.13,-0.04,0.19
6.815,-0.14,-0.12,-0.07,0.20
6.825,-0.20,-0.15,-0.10,0.27
6.835,-0.19,-0.15,-0.08,0.26
6.845,-0.15,-0.10,-0.09,0.20
6.855,-0.16,-0.01,-0.08,0.18
6.865,-0.14,0.01,-0.02,0.15
6.875,-0.14,0.02,-0.01,0.15
6.885,-0.08,0.01,-0.01,0.08
6.895,-0.05,0.02,-0.01,0.05
6.905,-0.02,-0.00,0.02,0.03
6.915,-0.04,0.00,0.01,0.04
6.925,-0.07,0.00,0.03,0.08
6.935,-0.14,0.03,0.06,0.15
6.945,-0.17,0.08,0.09,0.21
6.955,-0.19,0.07,0.13,0.24
6.965,-0.20,0.06,0.13,0.25
6.975,-0.21,0.06,0.14,0.26
6.985,-0.21,0.04,0.17,0.28
6.995,-0.18,0.03,0.14,0.23
7.005,-0.14,0.04,0.13,0.19
7.015,-0.06,0.02,0.15,0.17
7.025,0.02,-0.02,0.06,0.07
7.035,0.05,-0.07,-0.04,0.10
7.045,0.03,-0.07,-0.01,0.08
7.055,-0.04,-0.09,0.02,0.10
7.065,-0.05,-0.06,0.01,0.08
7.075,-0.09,-0.04,0.00,0.10
7.085,-0.14,-0.02,-0.05,0.14
7.095,-0.17,0.02,-0.07,0.18
7.105,-0.18,0.05,-0.07,0.20
7.115,-0.16,0.08,-0.07,0.19
7.125,-0.11,0.16,-0.05,0.19
7.135,-0.07,0.21,-0.06,0.23
7.145,-0.05,0.22,-0.10,0.24
7.155,-0.07,0.22,-0.11,0.26
7.165,-0.08,0.21,-0.07,0.23
7.175,-0.12,0.15,-0.05,0.20
7.185,-0.10,0.08,-0.07,0.14
7.195,-0.08,0.08,-0.11,0.16
7.205,-0.11,0.05,-0.11,0.16
7.215,-0.10,0.02,-0.18,0.21
7.225,-0.09,-0.03,-0.18,0.21
7.235,-0.14,-0.03,-0.21,0.26
7.245,-0.16,-0.01,-0.17,0.23
7.255,-0.17,-0.05,-0.12,0.22
7.265,-0.26,-0.11,-0.08,0.29
7.275,-0.29,-0.15,-0.05,0.33
7.285,-0.29,-0.14,-0.09,0.34
7.295,-0.27,-0.11,-0.01,0.29
7.305,-0.21,-0.13,0.02,0.25
7.315,-0.19,-0.15,-0.01,0.24
7.325,-0.10,-0.11,-0.02,0.15
7.335,-0.02,-0.07,-0.06,0.09
7.345,0.02,-0.00,-0.02,0.03
7.355,0.04,0.06,-0.02,0.07
7.365,0.01,0.12,-0.05,0.13
7.375,-0.02,0.13,0.03,0.14
7.385,-0.08,0.16,0.09,0.20
7.395,-0.15,0.17,0.17,0.29
7.405,-0.16,0.18,0.19,0.30
7.415,-0.18,0.14,0.17,0.29
7.425,-0.17,0.09,0.21,0.28
7.435,-0.16,0.03,0.18,0.24
7.445,-0.12,0.02,0.15,0.19
7.455,-0.07,-0.02,0.12,0.14
7.465,-0.07,-0.09,0.07,0.13
7.475,-0.08,-0.11,0.05,0.14
7.485,-0.09,-0.14,0.04,0.17
7.495,-0.08,-0.14,0.05,0.17
7.505,-0.06,-0.18,0.01,0.18
7.515,-0.02,-0.18,-0.04,0.18
7.525,0.02,-0.14,-0.06,0.15
7.535,-0.00,-0.13,-0.11,0.17
7.545,-0.06,-0.13,-0.14,0.20
7.555,-0.13,-0.07,-0.10,0.18
7.565,-0.16,-0.03,-0.09,0.19
7.575,-0.17,-0.01,-0.13,0.21
7.585,-0.16,0.05,-0.17,0.23
7.595,-0.17,0.04,-0.09,0.20
7.605,-0.19,0.06,-0.06,0.21
7.615,-0.17,0.06,-0.10,0.21
7.626,-0.14,0.09,-0.11,0.21
7.635,-0.14,0.10,-0.04,0.17
7.646,-0.16,0.08,-0.00,0.18
7.655,-0.10,0.06,-0.00,0.12
7.665,-0.07,0.05,-0.06,0.10
7.675,-0.04,0.02,-0.04,0.06
7.686,-0.02,0.01,-0.00,0.02
7.696,-0.02,-0.02,0.00,0.03
7.706,-0.01,-0.02,-0.04,0.05
7.716,0.02,-0.00,-0.09,0.09
7.726,0.02,-0.00,-0.07,0.07
7.736,-0.00,0.02,-0.06,0.06
7.746,-0.03,0.08,-0.07,0.11
7.756,-0.10,0.05,-0.03,0.11
7.766,-0.16,0.06,-0.01,0.17
7.776,-0.19,0.07,0.04,0.20
7.786,-0.18,0.08,0.06,0.21
7.796,-0.20,0.13,0.06,0.25
7.806,-0.20,0.13,0.05,0.25
7.815,-0.19,0.11,0.04,0.23
7.826,-0.17,0.09,0.00,0.19
7.836,-0.15,0.09,-0.05,0.18
7.846,-0.14,0.07,-0.04,0.17
7.856,-0.11,0.03,-0.07,0.14
7.866,-0.05,-0.04,-0.10,0.11
7.876,-0.01,-0.10,-0.10,0.14
7.886,-0.01,-0.17,-0.09,0.19
7.896,0.01,-0.17,-0.11,0.20
7.906,0.00,-0.21,-0.17,0.27
7.916,-0.02,-0.23,-0.15,0.28
7.926,-0.11,-0.20,-0.06,0.24
7.936,-0.19,-0.16,-0.02,0.25
7.946,-0.21,-0.13,-0.02,0.25
7.956,-0.20,-0.09,0.00,0.22
7.966,-0.17,-0.02,0.01,0.17
7.976,-0.16,-0.03,0.01,0.17
7.986,-0.15,-0.04,0.03,0.15
7.996,-0.08,-0.03,0.08,0.12
8.002,-0.03,-0.03,0.08,0.09
8.012,-0.02,-0.01,0.03,0.04
8.022,-0.00,-0.04,-0.01,0.05
8.032,0.02,-0.05,-0.02,0.06
8.042,-0.03,-0.01,-0.06,0.07
8.052,-0.08,0.07,0.00,0.10
8.062,-0.17,0.06,0.07,0.20
8.072,-0.22,0.11,0.08,0.26
8.082,-0.26,0.12,0.06,0.29
8.092,-0.30,0.13,0.05,0.33
8.102,-0.25,0.11,0.06,0.28
8.112,-0.21,0.10,0.07,0.24
8.122,-0.17,0.06,0.08,0.20
8.132,-0.14,0.00,0.04,0.15
8.142,-0.08,-0.04,-0.02,0.09
8.152,-0.06,-0.07,-0.03,0.10
8.162,-0.08,-0.08,-0.02,0.11
8.172,-0.11,-0.09,0.02,0.14
8.182,-0.13,-0.12,0.02,0.18
8.192,-0.10,-0.11,0.00,0.15
8.202,-0.04,-0.09,0.01,0.10
8.213,-0.03,-0.08,-0.04,0.09
8.222,0.02,-0.05,-0.05,0.08
8.232,0.03,-0.05,-0.05,0.08
8.242,0.03,-0.06,-0.12,0.14
8.252,-0.01,-0.04,-0.13,0.13
8.262,-0.08,0.01,-0.10,0.13
8.272,-0.20,0.06,-0.07,0.22
8.282,-0.25,0.08,-0.09,0.28
8.292,-0.33,0.13,-0.04,0.35
8.302,-0.33,0.19,0.05,0.38
8.312,-0.32,0.17,0.02,0.37
8.322,-0.31,0.16,-0.03,0.35
8.332,-0.24,0.18,-0.05,0.30
8.342,-0.18,0.20,-0.03,0.27
8.352,-0.14,0.16,-0.02,0.21
8.362,-0.16,0.12,-0.08,0.21
8.374,-0.16,0.11,-0.04,0.19
8.383,-0.14,0.09,-0.04,0.17
8.394,-0.09,0.06,-0.08,0.13
8.404,-0.07,0.07,-0.07,0.13
8.414,-0.01,0.06,-0.02,0.07
8.424,0.02,0.03,-0.03,0.05
8.434,-0.03,0.01,-0.08,0.08
8.444,-0.01,0.02,-0.07,0.08
8.454,-0.00,0.03,-0.09,0.10
8.464,-0.00,0.04,-0.09,0.09
8.474,0.00,0.06,-0.07,0.09
8.484,-0.05,0.06,-0.01,0.08
8.494,-0.08,-0.01,-0.01,0.08
8.504,-0.10,-0.05,0.03,0.12
8.514,-0.10,-0.08,0.07,0.14
8.524,-0.09,-0.10,0.06,0.15
8.534,-0.12,-0.09,-0.01,0.15
8.544,-0.12,-0.14,-0.10,0.21
8.554,-0.17,-0.20,-0.24,0.36
8.564,-0.24,-0.22,-0.27,0.42
8.574,-0.27,-0.24,-0.25,0.44
8.584,-0.28,-0.22,-0.22,0.42
8.594,-0.25,-0.15,-0.17,0.34
8.604,-0.24,-0.12,-0.11,0.29
8.614,-0.21,-0.12,-0.04,0.24
8.624,-0.17,-0.11,-0.03,0.21
8.634,-0.06,-0.07,-0.03,0.10
8.644,-0.01,-0.03,-0.01,0.03
8.654,0.02,0.03,0.05,0.06
8.664,0.00,0.10,0.08,0.13
8.674,-0.03,0.16,0.20,0.26
8.684,-0.05,0.21,0.27,0.34
8.694,-0.14,0.22,0.35,0.43
8.704,-0.08,0.28,0.31,0.43
8.714,-0.06,0.29,0.29,0.42
8.724,-0.04,0.20,0.19,0.28
8.734,0.02,0.09,0.03,0.10
8.744,0.04,0.00,-0.10,0.10
8.754,0.02,-0.04,-0.14,0.15
8.764,0.05,-0.03,-0.20,0.21
8.774,0.01,-0.03,-0.25,0.25
8.784,-0.06,-0.00,-0.24,0.24
8.794,-0.10,0.03,-0.19,0.21
8.804,-0.18,0.09,-0.11,0.23
8.814,-0.24,0.13,-0.01,0.27
8.824,-0.34,0.12,0.08,0.37
8.834,-0.38,0.09,0.15,0.42
8.844,-0.36,0.09,0.19,0.42
8.854,-0.33,0.11,0.28,0.45
8.864,-0.29,0.09,0.28,0.41
8.874,-0.15,0.08,0.22,0.28
8.884,-0.06,0.11,0.19,0.23
8.894,-0.01,0.14,0.19,0.24
8.904,0.02,0.17,0.17,0.24
8.914,0.04,0.19,0.15,0.25
8.924,0.06,0.17,0.12,0.22
8.934,0.03,0.11,0.11,0.16
8.944,-0.02,0.10,0.09,0.13
8.954,-0.03,0.02,0.06,0.07
8.964,-0.01,-0.01,0.08,0.08
8.974,0.00,-0.01,0.06,0.06
8.984,-0.02,-0.04,-0.01,0.04
8.994,0.01,-0.06,-0.01,0.06
9.004,-0.04,-0.12,-0.04,0.14
9.014,-0.11,-0.11,-0.08,0.18
9.024,-0.14,-0.09,-0.08,0.19
9.034,-0.20,-0.11,-0.08,0.25
9.044,-0.26,-0.15,-0.06,0.30
9.054,-0.27,-0.16,-0.06,0.32
9.064,-0.28,-0.17,-0.13,0.35
9.074,-0.31,-0.15,-0.15,0.38
9.084,-0.31,-0.12,-0.10,0.34
9.094,-0.28,-0.13,-0.08,0.31
9.104,-0.24,-0.12,-0.13,0.30
9.114,-0.26,-0.13,-0.14,0.33
9.124,-0.23,-0.09,-0.16,0.30
9.134,-0.22,-0.09,-0.10,0.25
9.144,-0.27,-0.09,-0.02,0.29
9.154,-0.29,-0.05,-0.02,0.29
9.164,-0.19,-0.01,-0.04,0.19
9.174,-0.13,-0.04,-0.02,0.13
9.184,-0.07,-0.04,-0.07,0.10
9.194,-0.01,-0.02,-0.15,0.16
9.204,0.04,-0.05,-0.12,0.13
9.214,0.04,-0.03,-0.07,0.08
9.224,0.03,-0.02,-0.04,0.06
9.234,0.01,-0.07,-0.02,0.07
9.244,-0.01,-0.07,-0.02,0.08
9.254,-0.03,-0.09,-0.01,0.10
9.264,-0.05,-0.09,0.00,0.10
9.274,-0.06,-0.07,-0.01,0.09
9.284,-0.09,-0.10,0.01,0.13
9.294,-0.11,-0.10,0.00,0.15
9.304,-0.13,-0.07,0.02,0.15
9.314,-0.16,-0.05,0.04,0.17
9.324,-0.16,-0.01,0.02,0.16
9.334,-0.11,-0.02,0.00,0.11
9.344,-0.07,0.00,-0.03,0.07
9.354,-0.07,0.01,-0.08,0.11
9.364,-0.09,-0.02,-0.12,0.15
9.374,-0.09,-0.08,-0.14,0.19
9.384,-0.12,-0.07,-0.15,0.20
9.394,-0.12,-0.06,-0.11,0.17
9.404,-0.08,-0.03,-0.09,0.13
9.414,-0.04,0.01,-0.07,0.08
9.424,-0.01,0.04,-0.03,0.05
9.434,-0.01,0.05,-0.03,0.06
9.444,0.03,0.08,-0.03,0.09
9.454,0.04,0.10,-0.02,0.10
9.464,0.03,0.13,-0.00,0.13
9.474,-0.01,0.13,-0.02,0.13
9.484,-0.05,0.13,-0.02,0.14
9.494,-0.08,0.10,-0.05,0.13
9.504,-0.19,0.10,-0.00,0.21
9.514,-0.26,0.04,0.06,0.27
9.525,-0.32,0.07,0.05,0.33
9.534,-0.37,0.12,0.08,0.40
9.544,-0.39,0.15,0.14,0.44
9.554,-0.34,0.15,0.13,0.40
9.564,-0.33,0.11,0.12,0.37
9.574,-0.29,0.05,0.07,0.30
9.584,-0.23,0.03,0.09,0.25
9.594,-0.17,0.01,0.09,0.19
9.604,-0.08,-0.01,0.05,0.10
9.614,-0.07,-0.01,0.03,0.08
9.624,-0.04,-0.03,-0.03,0.06
9.634,-0.01,-0.06,-0.01,0.06
9.644,-0.02,-0.06,0.00,0.06
9.654,0.00,-0.04,0.01,0.04
9.664,0.03,-0.02,0.01,0.04
9.674,0.01,-0.02,0.02,0.03
9.685,0.00,-0.03,0.02,0.04
9.695,-0.00,-0.01,0.01,0.02
9.705,-0.03,-0.02,0.02,0.04
9.715,-0.06,-0.03,0.01,0.07
9.725,-0.07,-0.02,0.03,0.08
9.734,-0.06,0.01,0.07,0.09
9.745,-0.09,0.03,0.06,0.11
9.755,-0.10,0.03,0.03,0.11
9.765,-0.10,0.07,-0.04,0.13
9.775,-0.07,0.07,0.01,0.10
9.785,-0.07,0.06,0.03,0.10
9.795,-0.07,0.06,-0.03,0.10
9.805,-0.05,0.03,-0.05,0.08
9.814,-0.08,0.01,-0.04,0.09
9.825,-0.15,0.02,-0.01,0.15
9.834,-0.20,0.02,-0.00,0.20
9.845,-0.19,0.03,-0.01,0.19
9.855,-0.16,0.00,-0.00,0.16
9.865,-0.17,-0.00,-0.00,0.17
9.875,-0.12,0.01,-0.02,0.12
9.885,-0.09,0.00,-0.10,0.13
9.895,-0.09,-0.02,-0.08,0.12
9.905,-0.07,-0.03,-0.06,0.09
9.915,-0.07,-0.02,-0.05,0.09
9.925,-0.06,-0.01,-0.02,0.06
9.935,-0.09,-0.00,-0.04,0.10
9.945,-0.11,0.00,-0.05,0.12
9.955,-0.10,0.03,-0.02,0.10
9.965,-0.14,0.05,-0.01,0.14
9.975,-0.19,0.07,-0.06,0.21
9.985,-0.18,0.08,-0.07,0.21
9.995,-0.20,0.07,-0.03,0.21
10.005,-0.22,0.08,-0.01,0.24
10.015,-0.22,0.09,0.00,0.23
10.025,-0.18,0.06,-0.05,0.19
10.035,-0.17,0.02,-0.06,0.18
10.045,-0.18,0.01,-0.04,0.19
10.055,-0.17,-0.01,-0.05,0.18
10.065,-0.16,0.01,-0.08,0.18
10.075,-0.19,-0.01,-0.08,0.20
10.085,-0.18,-0.02,-0.07,0.20
10.095,-0.14,0.00,-0.00,0.14
10.105,-0.12,-0.04,-0.04,0.13
10.115,-0.12,-0.07,-0.05,0.14
10.125,-0.10,-0.05,-0.04,0.12
10.135,-0.10,-0.03,-0.04,0.11
10.145,-0.10,-0.03,-0.06,0.12
10.155,-0.12,-0.04,-0.05,0.14
10.165,-0.12,-0.06,-0.02,0.13
10.175,-0.09,-0.06,0.01,0.11
10.185,-0.08,-0.08,-0.01,0.11
10.195,-0.06,-0.10,-0.04,0.13
10.205,-0.13,-0.11,-0.00,0.17
10.215,-0.11,-0.06,0.03,0.13
10.225,-0.11,-0.02,0.01,0.11
10.235,-0.09,-0.03,0.01,0.09
10.245,-0.09,-0.05,0.03,0.10
10.255,-0.10,-0.02,0.03,0.11
10.265,-0.10,-0.00,0.02,0.11
10.275,-0.05,-0.01,-0.00,0.06
10.285,-0.01,-0.01,-0.03,0.04
10.295,-0.01,-0.00,-0.06,0.06
10.305,-0.05,0.00,-0.05,0.07
10.315,-0.05,0.00,-0.07,0.09
10.325,-0.09,-0.02,-0.06,0.12
10.335,-0.12,-0.04,-0.06,0.14
10.345,-0.13,-0.03,-0.07,0.15
10.355,-0.14,-0.05,-0.04,0.16
10.365,-0.12,-0.03,-0.02,0.13
10.375,-0.11,-0.04,-0.01,0.12
10.385,-0.12,-0.05,0.03,0.13
10.395,-0.12,-0.04,0.01,0.12
10.405,-0.10,-0.03,-0.01,0.11
10.415,-0.11,0.00,0.01,0.11
10.425,-0.14,0.00,-0.00,0.14
10.435,-0.13,0.01,-0.01,0.13
10.445,-0.14,-0.01,0.01,0.14
10.455,-0.14,-0.01,0.01,0.14
10.465,-0.15,0.02,0.01,0.15
10.475,-0.19,0.02,0.05,0.20
10.485,-0.19,0.02,0.04,0.20
10.495,-0.22,-0.00,0.06,0.23
10.505,-0.22,-0.03,0.06,0.23
10.515,-0.17,-0.04,0.01,0.17
10.525,-0.10,-0.04,-0.01,0.10
10.535,-0.06,-0.05,-0.01,0.08
10.545,-0.02,-0.02,-0.05,0.05
10.555,-0.02,-0.02,-0.04,0.05
10.565,-0.06,-0.01,-0.02,0.07
10.575,-0.12,0.01,0.01,0.12
10.585,-0.17,0.01,0.05,0.18
10.595,-0.23,0.03,0.08,0.24
10.605,-0.23,0.06,0.06,0.24
10.615,-0.21,0.04,0.07,0.23
10.625,-0.22,0.06,0.06,0.23
10.635,-0.14,0.06,-0.01,0.15
10.645,-0.08,0.03,-0.03,0.09
10.655,-0.05,0.01,-0.01,0.05
10.665,-0.05,0.00,-0.05,0.08
10.675,-0.06,-0.02,-0.06,0.08
10.685,-0.04,-0.03,-0.06,0.08
10.695,-0.02,0.02,-0.04,0.05
10.705,-0.01,0.07,-0.05,0.09
10.715,-0.02,0.10,-0.03,0.11
10.725,-0.04,0.10,-0.02,0.11
10.735,-0.12,0.10,0.02,0.16
10.745,-0.19,0.09,0.06,0.22
10.755,-0.19,0.09,0.07,0.22
10.765,-0.22,0.08,0.08,0.25
10.775,-0.21,0.05,0.06,0.22
10.785,-0.16,0.03,0.05,0.17
10.795,-0.10,-0.02,0.06,0.11
10.805,-0.05,-0.04,0.01,0.07
10.815,-0.02,-0.09,-0.00,0.09
10.825,-0.02,-0.11,0.02,0.12
10.835,-0.05,-0.08,0.03,0.10
10.845,-0.08,-0.07,0.04,0.11
10.855,-0.14,-0.05,0.04,0.15
10.865,-0.22,-0.01,0.03,0.23
10.875,-0.24,-0.00,0.09,0.25
10.885,-0.24,0.01,0.06,0.25
10.895,-0.21,0.02,-0.03,0.21
10.906,-0.20,0.02,0.00,0.20
10.915,-0.16,-0.01,0.03,0.16
10.925,-0.11,-0.01,-0.06,0.12
10.935,-0.05,0.00,-0.09,0.10
10.946,-0.04,-0.02,-0.06,0.07
10.955,-0.05,-0.03,-0.07,0.09
10.965,-0.05,-0.02,-0.03,0.06
10.975,-0.08,-0.04,-0.00,0.09
10.985,-0.12,-0.06,-0.02,0.13
10.995,-0.13,-0.05,-0.01,0.14
11.005,-0.18,-0.05,-0.03,0.19
11.015,-0.16,-0.01,-0.04,0.17
11.025,-0.08,-0.02,-0.07,0.11
11.035,-0.01,-0.01,-0.13,0.13
11.046,0.06,-0.01,-0.19,0.20
11.055,0.08,0.02,-0.19,0.20
11.065,0.06,-0.00,-0.13,0.14
11.075,0.06,-0.05,-0.11,0.13
11.086,0.06,-0.07,-0.04,0.10
11.095,-0.01,-0.05,0.02,0.05
11.106,-0.10,-0.03,0.07,0.12
11.116,-0.12,-0.04,0.08,0.15
11.126,-0.10,-0.01,0.06,0.12
11.135,-0.12,-0.02,0.02,0.12
11.146,-0.15,-0.04,0.01,0.15
11.156,-0.24,-0.04,0.03,0.25
11.166,-0.28,-0.06,0.11,0.31
11.176,-0.28,-0.04,0.07,0.29
11.186,-0.29,-0.01,0.06,0.29
11.196,-0.28,0.02,0.06,0.29
11.206,-0.26,0.03,-0.00,0.26
11.216,-0.24,0.04,-0.05,0.25
11.226,-0.22,0.04,-0.01,0.23
11.236,-0.23,0.05,-0.00,0.23
11.246,-0.19,0.05,0.02,0.19
11.256,-0.11,0.05,-0.02,0.12
11.266,-0.06,0.03,-0.04,0.08
11.276,-0.02,0.02,-0.03,0.04
11.286,0.04,0.04,-0.09,0.11
11.296,0.06,0.01,-0.09,0.11
11.306,0.07,0.04,-0.09,0.12
11.316,0.01,0.03,-0.05,0.06
11.326,-0.04,0.04,0.01,0.05
11.336,-0.07,0.06,-0.02,0.09
11.346,-0.12,0.08,-0.02,0.14
11.356,-0.15,0.07,0.03,0.16
11.366,-0.13,0.08,0.02,0.16
11.376,-0.14,0.09,-0.02,0.16
11.386,-0.13,0.09,-0.06,0.17
11.396,-0.15,0.11,-0.08,0.20
11.406,-0.16,0.09,-0.04,0.19
11.416,-0.11,0.07,-0.03,0.13
11.426,-0.06,0.01,-0.08,0.10
11.436,-0.13,-0.00,-0.02,0.13
11.446,-0.17,0.05,0.14,0.23
11.456,-0.12,0.09,0.20,0.25
11.466,-0.12,0.07,0.19,0.24
11.476,-0.08,-0.00,0.12,0.14
11.486,-0.02,0.01,0.03,0.04
11.496,-0.01,-0.01,0.01,0.02
11.506,-0.01,-0.07,0.02,0.07
11.516,-0.05,-0.05,0.01,0.07
11.526,-0.10,-0.04,0.02,0.11
11.536,-0.16,-0.05,0.06,0.17
11.546,-0.17,-0.06,0.06,0.19
11.556,-0.18,-0.06,0.06,0.20
11.566,-0.17,-0.05,0.02,0.18
11.576,-0.16,-0.06,0.01,0.17
11.586,-0.15,-0.04,0.00,0.15
11.596,-0.14,-0.05,-0.01,0.15
11.606,-0.13,-0.07,-0.04,0.16
11.616,-0.12,-0.06,-0.08,0.15
11.626,-0.09,-0.05,-0.07,0.12
11.636,-0.08,-0.03,-0.07,0.11
11.646,-0.07,-0.05,-0.10,0.13
11.656,-0.05,-0.07,-0.11,0.14
11.666,-0.03,-0.05,-0.11,0.12
11.676,-0.05,-0.06,-0.14,0.16
11.686,-0.07,-0.04,-0.15,0.17
11.696,-0.14,-0.06,-0.12,0.19
11.706,-0.19,-0.09,-0.07,0.22
11.716,-0.23,-0.07,-0.07,0.25
11.726,-0.23,-0.06,-0.05,0.25
11.736,-0.25,-0.04,-0.05,0.26
11.746,-0.24,-0.03,-0.05,0.25
11.756,-0.25,-0.04,-0.02,0.25
11.766,-0.26,-0.04,0.02,0.26
11.776,-0.24,-0.04,0.02,0.25
11.786,-0.17,-0.04,-0.01,0.17
11.796,-0.11,-0.05,-0.01,0.12
11.806,-0.10,-0.03,0.02,0.11
11.816,-0.06,-0.02,0.02,0.07
11.826,-0.03,-0.03,0.02,0.04
11.836,-0.03,-0.01,0.02,0.04
11.846,-0.02,0.00,0.04,0.04
11.856,-0.04,0.03,0.01,0.06
11.866,-0.05,0.05,0.02,0.08
11.876,-0.07,0.10,0.05,0.13
11.886,-0.10,0.11,0.03,0.15
11.896,-0.11,0.12,0.03,0.16
11.906,-0.14,0.13,-0.00,0.19
11.916,-0.12,0.14,0.03,0.18
11.926,-0.11,0.13,0.01,0.17
11.936,-0.12,0.12,-0.03,0.17
11.946,-0.13,0.09,-0.00,0.16
11.956,-0.17,0.08,0.03,0.19
11.966,-0.18,0.05,0.03,0.19
11.976,-0.14,0.03,0.01,0.14
11.986,-0.12,0.05,-0.02,0.14
11.996,-0.10,0.07,-0.03,0.13
12.005,-0.09,0.04,-0.06,0.11
12.015,-0.08,0.02,-0.04,0.09
12.025,-0.11,0.03,-0.03,0.11
12.035,-0.10,0.01,-0.04,0.11
12.045,-0.11,0.03,-0.05,0.13
12.055,-0.14,0.03,-0.04,0.15
12.065,-0.19,0.00,-0.01,0.19
12.075,-0.19,0.01,-0.02,0.19
12.085,-0.13,0.03,-0.02,0.14
12.095,-0.10,0.03,-0.06,0.12
12.105,-0.09,0.02,-0.09,0.13
12.115,-0.10,-0.00,-0.04,0.10
12.125,-0.10,-0.01,-0.03,0.11
12.135,-0.10,-0.02,-0.03,0.11
12.145,-0.08,-0.03,-0.01,0.08
12.155,-0.09,-0.03,-0.01,0.09
12.165,-0.08,-0.05,-0.06,0.11
12.175,-0.06,-0.07,0.01,0.09
12.185,-0.10,-0.08,-0.01,0.13
12.195,-0.09,-0.10,-0.05,0.14
12.205,-0.08,-0.09,-0.02,0.12
12.215,-0.11,-0.13,-0.00,0.17
12.225,-0.14,-0.12,-0.01,0.18
12.235,-0.15,-0.09,0.02,0.18
12.245,-0.15,-0.07,0.04,0.17
12.255,-0.13,-0.05,0.04,0.14
12.265,-0.12,-0.06,0.02,0.14
12.275,-0.10,-0.05,0.01,0.11
12.285,-0.08,-0.02,0.00,0.08
12.295,-0.05,-0.03,0.05,0.08
12.305,-0.04,-0.07,0.06,0.10
12.315,-0.02,-0.08,0.05,0.10
12.325,0.00,-0.08,0.03,0.08
12.335,0.03,-0.04,0.02,0.06
12.345,-0.04,-0.02,0.01,0.05
12.355,-0.10,-0.00,0.02,0.10
12.366,-0.15,0.01,0.04,0.16
12.375,-0.19,0.05,0.00,0.20
12.385,-0.21,0.03,-0.03,0.22
12.395,-0.22,0.01,-0.02,0.22
12.405,-0.22,-0.01,-0.07,0.24
12.415,-0.20,-0.06,-0.08,0.22
12.425,-0.19,-0.05,-0.03,0.20
12.435,-0.20,-0.05,-0.02,0.21
12.445,-0.19,-0.07,0.00,0.20
12.455,-0.18,-0.05,0.01,0.19
12.465,-0.14,-0.03,0.04,0.15
12.475,-0.11,-0.03,0.08,0.14
12.485,-0.07,-0.03,0.04,0.09
12.495,-0.09,-0.01,0.05,0.10
12.505,-0.15,0.02,0.03,0.16
12.515,-0.14,0.05,0.06,0.16
12.526,-0.09,0.09,0.08,0.15
12.535,-0.09,0.07,0.06,0.13
12.545,-0.07,0.07,0.04,0.10
12.555,-0.00,0.09,-0.01,0.09
12.565,0.02,0.08,-0.01,0.08
12.575,0.01,0.03,-0.03,0.05
12.585,0.05,0.04,-0.06,0.08
12.595,0.06,0.03,-0.03,0.08
12.605,0.05,0.03,-0.06,0.09
12.615,-0.00,0.05,-0.07,0.09
12.626,-0.06,0.04,-0.04,0.08
12.635,-0.13,0.06,-0.04,0.15
12.646,-0.19,0.06,-0.03,0.20
12.655,-0.23,0.07,-0.03,0.24
12.666,-0.26,0.04,-0.04,0.27
12.675,-0.22,0.04,-0.04,0.22
12.685,-0.13,0.03,-0.10,0.16
12.695,-0.09,0.02,-0.12,0.15
12.705,-0.05,-0.04,-0.08,0.10
12.715,-0.07,-0.04,-0.07,0.10
12.725,-0.07,-0.03,-0.07,0.10
12.736,-0.11,-0.02,-0.02,0.11
12.746,-0.15,-0.01,-0.03,0.15
12.755,-0.19,-0.00,-0.04,0.19
12.766,-0.18,-0.01,-0.03,0.18
12.776,-0.19,0.01,-0.05,0.19
12.786,-0.17,0.01,-0.06,0.19
12.795,-0.15,0.02,-0.07,0.17
12.806,-0.16,0.04,-0.08,0.18
12.816,-0.16,0.05,-0.10,0.19
12.826,-0.18,0.07,-0.08,0.21
12.836,-0.18,0.03,-0.04,0.19
12.846,-0.19,0.03,-0.04,0.20
12.856,-0.21,0.04,-0.04,0.22
12.866,-0.19,0.01,-0.00,0.19
12.876,-0.16,-0.01,0.06,0.17
12.886,-0.06,0.01,0.05,0.08
12.896,-0.07,0.02,0.08,0.10
12.906,-0.12,-0.02,0.01,0.12
12.916,-0.03,-0.04,-0.05,0.07
12.926,0.02,-0.07,-0.10,0.12
12.936,-0.02,-0.07,-0.04,0.08
12.946,-0.05,-0.12,-0.03,0.13
12.956,-0.09,-0.15,-0.01,0.17
12.966,-0.14,-0.18,-0.01,0.23
12.976,-0.19,-0.19,0.04,0.27
12.986,-0.20,-0.20,0.06,0.29
12.996,-0.22,-0.17,0.05,0.29
13.006,-0.23,-0.14,0.03,0.26
13.016,-0.21,-0.09,0.02,0.23
13.026,-0.21,-0.04,0.01,0.21
13.036,-0.18,0.01,0.01,0.18
13.046,-0.16,0.00,0.03,0.16
13.056,-0.10,0.01,0.03,0.11
13.066,-0.07,0.04,0.02,0.09
13.076,-0.05,0.07,0.01,0.09
13.086,-0.01,0.11,0.01,0.11
13.096,0.05,0.07,-0.01,0.08
13.106,0.08,0.04,-0.05,0.10
13.116,0.13,0.02,-0.05,0.15
13.126,0.15,0.02,-0.07,0.17
13.136,0.12,0.04,-0.04,0.13
13.146,0.05,0.04,-0.06,0.09
13.156,-0.01,0.03,-0.05,0.06
13.166,-0.04,-0.01,-0.01,0.04
13.176,-0.11,-0.01,-0.04,0.11
13.186,-0.17,0.01,-0.00,0.17
13.196,-0.20,-0.01,0.02,0.20
13.206,-0.21,-0.02,0.03,0.21
13.216,-0.21,-0.04,0.02,0.22
13.226,-0.24,-0.06,0.01,0.25
13.236,-0.21,-0.04,0.01,0.22
13.246,-0.21,-0.03,0.02,0.21
13.256,-0.22,-0.02,0.03,0.22
13.266,-0.23,-0.02,0.04,0.24
13.276,-0.22,-0.04,0.03,0.23
13.286,-0.19,-0.01,0.03,0.20
13.296,-0.15,0.04,0.02,0.15
13.306,-0.10,0.05,-0.01,0.11
13.316,-0.04,0.07,-0.04,0.09
13.326,-0.04,0.05,-0.08,0.10
13.336,-0.09,0.08,-0.05,0.12
13.346,-0.11,0.10,-0.01,0.15
13.356,-0.12,0.09,-0.01,0.15
13.366,-0.17,0.10,-0.00,0.19
13.376,-0.17,0.11,-0.01,0.20
13.386,-0.14,0.10,0.02,0.17
13.396,-0.13,0.07,0.00,0.15
13.406,-0.11,0.05,-0.05,0.13
13.416,-0.06,0.01,-0.06,0.09
13.426,-0.08,0.02,-0.03,0.09
13.436,-0.09,-0.00,0.00,0.09
13.446,-0.12,-0.02,-0.00,0.12
13.456,-0.15,-0.03,-0.03,0.16
13.466,-0.18,-0.03,0.01,0.18
13.476,-0.19,-0.05,0.04,0.19
13.486,-0.18,-0.02,0.01,0.18
13.496,-0.19,0.03,0.01,0.20
13.506,-0.15,0.00,0.05,0.16
13.516,-0.12,0.02,0.05,0.13
13.526,-0.11,0.00,0.01,0.11
13.536,-0.09,0.01,-0.03,0.10
13.546,-0.11,-0.01,-0.05,0.12
13.556,-0.14,-0.02,-0.02,0.14
13.566,-0.16,-0.04,-0.02,0.17
13.576,-0.19,-0.00,0.00,0.19
13.586,-0.22,0.00,0.04,0.22
13.596,-0.14,-0.03,0.05,0.16
13.606,-0.12,-0.06,0.02,0.13
13.616,-0.06,-0.09,-0.04,0.11
13.626,-0.02,-0.10,-0.05,0.12
13.636,0.00,-0.11,-0.03,0.11
13.646,-0.02,-0.11,-0.06,0.13
13.656,-0.03,-0.13,-0.05,0.14
13.666,-0.07,-0.10,-0.06,0.13
13.676,-0.10,-0.10,-0.02,0.14
13.686,-0.10,-0.07,-0.01,0.12
13.696,-0.12,-0.06,-0.00,0.13
13.706,-0.14,-0.03,0.01,0.15
13.716,-0.13,-0.02,0.00,0.13
13.726,-0.14,-0.03,-0.00,0.15
13.736,-0.15,-0.02,0.00,0.15
13.746,-0.13,-0.02,0.02,0.13
13.756,-0.14,-0.03,0.03,0.14
13.766,-0.11,-0.03,0.02,0.12
13.776,-0.08,-0.04,0.00,0.09
13.786,-0.09,-0.03,-0.01,0.09
13.796,-0.09,0.01,-0.01,0.09
13.806,-0.06,0.02,-0.03,0.07
13.816,-0.08,0.00,-0.06,0.10
13.826,-0.09,-0.00,-0.06,0.11
13.836,-0.07,0.01,-0.07,0.10
13.846,-0.08,-0.01,-0.04,0.08
13.856,-0.10,-0.01,-0.03,0.10
13.866,-0.10,0.02,-0.02,0.10
13.876,-0.13,0.04,-0.01,0.14
13.886,-0.17,0.05,0.02,0.18
13.896,-0.18,0.07,0.01,0.19
13.906,-0.15,0.07,0.04,0.17
13.916,-0.14,0.08,0.04,0.17
13.926,-0.10,0.07,0.01,0.12
13.936,-0.12,0.04,0.02,0.12
13.946,-0.12,0.02,0.02,0.12
13.956,-0.11,0.01,0.02,0.11
13.966,-0.10,0.01,0.05,0.11
13.976,-0.06,0.03,0.03,0.08
13.986,-0.04,0.05,0.03,0.07
13.996,-0.02,0.04,0.02,0.05
14.006,-0.00,0.02,0.01,0.02
14.016,0.00,0.02,-0.02,0.03
14.026,-0.01,0.05,-0.05,0.07
14.036,-0.01,0.05,-0.07,0.08
14.047,-0.02,0.05,-0.06,0.08
14.057,-0.06,0.05,-0.03,0.08
14.066,-0.13,0.01,-0.01,0.13
14.077,-0.17,0.01,-0.02,0.17
14.086,-0.22,0.02,0.00,0.22
14.096,-0.26,0.02,0.04,0.27
14.106,-0.30,0.02,0.05,0.31
14.117,-0.27,0.02,0.02,0.27
14.127,-0.23,0.02,0.02,0.23
14.137,-0.21,0.02,-0.01,0.22
14.146,-0.18,-0.01,-0.04,0.18
14.156,-0.18,-0.00,-0.06,0.19
14.167,-0.18,-0.01,-0.05,0.19
14.177,-0.20,-0.02,-0.04,0.20
14.187,-0.20,-0.01,-0.04,0.21
14.197,-0.17,-0.01,-0.03,0.18
14.207,-0.17,0.00,-0.02,0.17
14.217,-0.14,0.01,-0.02,0.14
14.227,-0.12,-0.01,-0.02,0.12
14.237,-0.11,0.00,-0.01,0.11
14.247,-0.07,0.00,-0.03,0.08
14.257,-0.06,-0.01,-0.07,0.09
14.267,-0.06,-0.03,-0.07,0.10
14.276,-0.08,-0.05,-0.05,0.11
14.287,-0.08,-0.03,-0.06,0.10
14.297,-0.09,0.01,-0.04,0.10
14.307,-0.11,0.03,-0.05,0.13
14.317,-0.19,0.05,-0.04,0.20
14.327,-0.23,0.05,0.01,0.24
14.337,-0.27,0.06,0.03,0.28
14.347,-0.29,0.05,0.05,0.29
14.357,-0.23,0.05,0.00,0.24
14.367,-0.16,0.00,0.05,0.17
14.377,-0.14,-0.02,0.05,0.15
14.387,-0.12,-0.07,0.00,0.14
14.397,-0.05,-0.10,0.01,0.11
14.407,0.03,-0.09,-0.00,0.10
14.417,0.00,-0.10,-0.02,0.10
14.427,-0.03,-0.09,-0.02,0.10
14.437,-0.03,-0.09,0.03,0.10
14.447,-0.04,-0.08,0.05,0.10
14.457,-0.08,-0.02,0.05,0.10
14.467,-0.06,-0.00,0.04,0.08
14.477,-0.04,-0.00,0.04,0.06
14.487,-0.04,-0.01,0.04,0.06
14.497,-0.06,-0.00,0.04,0.07
14.507,-0.03,-0.01,0.03,0.04
14.517,-0.06,-0.02,-0.00,0.07
14.527,-0.11,0.00,0.02,0.11
14.537,-0.13,0.00,0.05,0.14
14.547,-0.12,-0.03,0.03,0.13
14.557,-0.13,0.01,-0.03,0.13
14.567,-0.08,0.02,-0.00,0.08
14.577,-0.08,0.01,-0.01,0.08
14.587,-0.05,0.02,-0.07,0.09
14.597,-0.01,0.02,-0.07,0.07
14.607,-0.06,0.03,-0.03,0.07
14.617,-0.08,0.03,-0.00,0.09
14.627,-0.10,0.03,-0.02,0.11
14.637,-0.13,0.05,-0.00,0.14
14.647,-0.16,0.03,0.03,0.16
14.657,-0.18,0.05,0.03,0.19
14.667,-0.17,0.08,-0.00,0.19
14.677,-0.16,0.03,0.01,0.16
14.687,-0.14,0.06,-0.02,0.15
14.697,-0.12,0.05,-0.02,0.13
14.707,-0.13,0.04,-0.01,0.14
14.717,-0.10,0.01,-0.01,0.10
14.727,-0.10,0.01,-0.02,0.11
14.737,-0.10,0.00,-0.07,0.12
14.747,-0.09,-0.04,-0.06,0.12
14.757,-0.10,-0.08,-0.03,0.13
14.767,-0.08,-0.08,-0.01,0.11
14.777,-0.03,-0.07,-0.05,0.09
14.787,-0.00,-0.09,-0.04,0.10
14.797,-0.02,-0.08,-0.04,0.09
14.807,-0.04,-0.05,-0.03,0.07
14.817,-0.05,-0.04,-0.00,0.07
14.827,-0.08,-0.05,-0.01,0.09
14.837,-0.09,-0.03,-0.03,0.09
14.847,-0.11,-0.04,-0.06,0.13
14.857,-0.11,-0.02,-0.06,0.13
14.867,-0.13,-0.03,-0.05,0.14
14.877,-0.13,0.05,-0.00,0.13
14.887,-0.14,0.01,0.04,0.15
14.897,-0.19,-0.05,-0.01,0.20
14.907,-0.18,0.01,-0.09,0.20
14.917,-0.15,-0.03,0.03,0.15
14.927,-0.16,-0.04,0.01,0.17
14.937,-0.13,-0.01,-0.05,0.14
14.947,-0.10,-0.04,-0.03,0.12
14.957,-0.10,-0.02,-0.02,0.11
14.967,-0.09,-0.05,-0.00,0.10
14.977,-0.09,-0.04,-0.05,0.11
14.987,-0.12,-0.02,-0.07,0.14
14.997,-0.12,0.00,-0.02,0.12
15.007,-0.12,-0.01,-0.01,0.12
15.017,-0.12,-0.02,0.00,0.12
15.027,-0.10,0.03,-0.04,0.11
15.037,-0.11,0.02,-0.04,0.12
15.047,-0.14,0.00,0.03,0.14
15.057,-0.11,0.03,0.03,0.12
15.067,-0.09,0.08,-0.00,0.12
15.077,-0.11,0.04,-0.03,0.12
15.087,-0.13,0.04,-0.02,0.14
15.097,-0.11,0.07,0.03,0.14
15.107,-0.16,0.04,0.00,0.17
15.117,-0.20,0.04,-0.04,0.21
15.127,-0.21,0.04,0.04,0.21
15.137,-0.19,0.06,0.06,0.20
15.147,-0.15,0.06,0.02,0.16
15.157,-0.11,0.03,-0.02,0.11
15.167,-0.11,0.03,-0.01,0.11
15.177,-0.08,0.01,0.00,0.08
15.187,-0.04,-0.00,-0.01,0.04
15.197,-0.02,0.03,-0.04,0.06
15.207,-0.01,0.03,0.00,0.03
15.217,-0.01,0.06,-0.02,0.06
15.227,-0.03,0.09,-0.01,0.09
15.237,-0.06,0.07,0.01,0.10
15.247,-0.09,0.05,0.05,0.11
15.257,-0.11,0.02,0.04,0.12
15.267,-0.13,0.01,-0.00,0.13
15.277,-0.14,-0.03,-0.04,0.15
15.287,-0.17,-0.03,-0.02,0.17
15.297,-0.18,-0.06,0.02,0.19
15.307,-0.22,-0.07,0.02,0.23
15.317,-0.16,-0.05,-0.03,0.17
15.327,-0.16,-0.06,-0.03,0.17
15.337,-0.19,-0.06,-0.02,0.20
15.347,-0.17,-0.05,-0.02,0.18
15.357,-0.16,-0.05,0.00,0.17
15.367,-0.16,-0.07,-0.03,0.17
15.377,-0.17,-0.06,-0.02,0.18
15.387,-0.17,-0.06,0.02,0.18
15.397,-0.15,-0.04,0.05,0.17
15.407,-0.15,-0.02,0.04,0.16
15.417,-0.13,-0.01,0.05,0.14
15.427,-0.11,0.02,0.01,0.11
15.437,-0.09,0.03,0.05,0.11
15.447,-0.04,-0.01,0.10,0.11
15.458,-0.02,-0.09,0.21,0.23
15.468,0.01,-0.03,0.38,0.38
15.477,-0.03,0.11,0.31,0.33
15.488,-0.11,0.17,0.04,0.21
15.497,-0.11,0.14,-0.18,0.26
15.507,-0.02,0.09,-0.24,0.26
15.518,-0.01,0.07,-0.10,0.12
15.528,-0.04,0.06,0.03,0.08
15.537,-0.10,0.03,-0.01,0.10
15.548,-0.11,-0.03,-0.05,0.13
15.557,-0.09,-0.07,-0.01,0.11
15.568,-0.11,-0.04,-0.01,0.11
15.578,-0.11,-0.03,-0.07,0.14
15.588,-0.16,-0.06,-0.08,0.19
15.598,-0.19,-0.09,-0.04,0.21
15.608,-0.21,-0.02,-0.03,0.21
15.618,-0.22,-0.01,-0.09,0.24
15.628,-0.18,-0.07,-0.15,0.25
15.638,-0.13,-0.04,-0.13,0.18
15.648,-0.12,0.01,-0.11,0.16
15.658,-0.16,-0.01,-0.07,0.18
15.668,-0.16,-0.02,-0.04,0.17
15.678,-0.18,-0.06,-0.03,0.20
15.688,-0.19,-0.08,-0.04,0.21
15.697,-0.15,-0.04,-0.05,0.17
15.708,-0.14,-0.02,-0.07,0.16
15.718,-0.14,-0.05,-0.06,0.16
15.728,-0.10,-0.06,-0.06,0.13
15.738,-0.08,-0.05,0.00,0.09
15.748,-0.04,-0.04,0.03,0.06
15.758,-0.07,-0.01,0.01,0.07
15.768,-0.14,0.00,-0.01,0.14
15.778,-0.18,-0.02,-0.02,0.18
15.788,-0.15,-0.01,-0.01,0.15
15.798,-0.17,0.04,-0.03,0.18
15.808,-0.12,0.06,-0.02,0.14
15.818,-0.06,0.06,-0.01,0.08
15.828,-0.07,0.02,-0.04,0.08
15.838,-0.10,0.02,-0.06,0.12
15.848,-0.12,-0.00,-0.04,0.13
15.858,-0.16,-0.01,-0.05,0.17
15.868,-0.21,0.05,-0.03,0.22
15.878,-0.22,0.08,-0.02,0.24
15.888,-0.24,-0.03,-0.00,0.24
15.898,-0.19,-0.03,-0.02,0.19
15.908,-0.10,0.01,-0.03,0.11
15.918,-0.07,0.00,-0.03,0.08
15.928,-0.04,-0.04,-0.07,0.09
15.938,0.03,-0.05,-0.09,0.11
15.948,-0.01,-0.04,-0.09,0.09
15.958,-0.01,-0.04,-0.07,0.08
15.968,-0.07,-0.03,-0.03,0.08
15.978,-0.09,-0.03,0.02,0.09
15.988,-0.08,-0.03,0.08,0.12
15.998,-0.08,-0.03,0.10,0.13
16.008,-0.06,-0.01,0.09,0.11
16.018,-0.05,-0.05,0.09,0.11
16.028,0.02,-0.03,0.12,0.13
16.038,0.05,0.00,0.12,0.13
16.048,0.06,-0.01,0.10,0.11
16.058,0.04,-0.00,0.08,0.09
16.068,-0.01,0.03,0.05,0.05
16.078,-0.01,0.02,0.05,0.05
16.088,-0.06,0.01,0.06,0.08
16.098,-0.10,0.03,0.05,0.12
16.108,-0.13,0.01,0.02,0.13
16.118,-0.15,0.03,0.01,0.15
16.128,-0.15,0.04,0.03,0.15
16.138,-0.14,-0.01,0.01,0.14
16.148,-0.18,0.00,-0.03,0.18
16.158,-0.19,0.01,-0.06,0.20
16.168,-0.20,0.00,-0.08,0.21
16.178,-0.22,-0.01,-0.06,0.23
16.188,-0.26,-0.05,-0.05,0.27
16.198,-0.25,-0.01,-0.05,0.26
16.208,-0.23,-0.01,-0.04,0.24
16.218,-0.24,-0.01,-0.01,0.24
16.228,-0.19,0.01,-0.02,0.19
16.238,-0.13,-0.01,-0.04,0.14
16.248,-0.13,-0.02,-0.07,0.15
16.258,-0.10,-0.02,-0.04,0.11
16.268,-0.11,-0.04,-0.01,0.12
16.278,-0.12,-0.07,-0.08,0.16
16.288,-0.12,-0.05,-0.11,0.17
16.298,-0.16,-0.02,-0.05,0.17
16.308,-0.19,-0.01,-0.02,0.19
16.318,-0.18,-0.01,0.00,0.18
16.328,-0.14,-0.06,-0.00,0.15
16.338,-0.12,-0.03,-0.02,0.13
16.348,-0.09,0.03,-0.01,0.10
16.358,-0.09,0.01,0.04,0.10
16.368,-0.06,-0.00,0.03,0.07
16.379,-0.05,-0.00,0.03,0.06
16.389,-0.05,-0.01,-0.01,0.05
16.399,-0.06,-0.01,-0.01,0.06
16.409,-0.10,0.01,-0.02,0.10
16.419,-0.07,0.02,-0.01,0.08
16.429,-0.08,-0.03,-0.00,0.08
16.439,-0.06,-0.02,-0.04,0.08
16.449,-0.03,0.03,-0.03,0.05
16.459,-0.04,0.01,0.01,0.04
16.470,-0.07,0.02,0.01,0.08
16.479,-0.11,0.01,0.05,0.12
16.489,-0.14,0.00,0.02,0.15
16.500,-0.17,0.00,0.01,0.17
16.510,-0.18,0.05,-0.00,0.19
16.520,-0.18,0.04,-0.02,0.18
16.529,-0.16,0.02,-0.05,0.17
16.540,-0.14,0.01,-0.04,0.15
16.550,-0.12,0.03,-0.05,0.14
16.560,-0.09,0.04,-0.06,0.12
16.570,-0.09,0.03,-0.04,0.10
16.580,-0.08,0.05,-0.06,0.12
16.590,-0.11,0.05,-0.08,0.15
16.600,-0.17,0.04,-0.05,0.18
16.610,-0.14,0.04,-0.08,0.16
16.620,-0.21,0.01,-0.06,0.22
16.630,-0.19,0.01,-0.00,0.19
16.640,-0.16,0.04,-0.01,0.17
16.650,-0.14,0.01,-0.03,0.14
16.660,-0.13,-0.04,-0.01,0.14
16.670,-0.13,0.00,-0.01,0.13
16.680,-0.10,-0.01,0.00,0.10
16.690,-0.06,-0.07,-0.02,0.09
16.700,-0.07,-0.05,-0.05,0.10
16.710,-0.08,-0.03,-0.05,0.10
16.720,-0.09,-0.04,-0.05,0.11
16.730,-0.10,-0.06,0.02,0.12
16.740,-0.07,-0.01,0.04,0.08
16.750,-0.06,-0.01,0.03,0.07
16.760,-0.07,-0.01,0.00,0.08
16.770,-0.07,-0.01,-0.01,0.07
16.780,-0.09,-0.00,0.02,0.09
16.790,-0.09,0.04,0.06,0.12
16.800,-0.09,0.03,-0.01,0.09
16.810,-0.10,-0.01,-0.02,0.10
16.820,-0.08,0.03,0.02,0.08
16.830,-0.04,0.03,-0.01,0.06
16.840,-0.08,0.03,-0.03,0.09
16.850,-0.09,0.03,-0.03,0.10
16.860,-0.11,-0.00,-0.01,0.12
16.870,-0.09,-0.01,-0.03,0.09
16.880,-0.06,-0.01,-0.04,0.07
16.890,-0.05,0.00,-0.06,0.07
16.900,-0.04,0.00,-0.04,0.06
16.910,-0.10,-0.03,-0.01,0.10
16.920,-0.14,-0.04,0.00,0.15
16.930,-0.18,-0.03,0.04,0.19
16.940,-0.22,-0.04,0.04,0.23
16.950,-0.25,-0.00,-0.01,0.25
16.960,-0.24,-0.02,-0.03,0.24
16.970,-0.22,-0.04,0.01,0.23
16.980,-0.12,-0.01,0.06,0.13
16.990,-0.14,-0.03,0.06,0.16
17.000,-0.13,0.04,-0.03,0.14
17.010,-0.11,0.04,-0.08,0.14
17.020,-0.11,-0.01,-0.03,0.11
17.030,-0.04,-0.05,-0.05,0.09
17.040,-0.08,-0.03,0.01,0.09
17.050,-0.07,-0.07,0.00,0.09
17.060,-0.06,-0.06,-0.03,0.09
17.070,-0.05,-0.04,-0.04,0.07
17.080,-0.05,-0.03,-0.02,0.06
17.090,-0.12,-0.02,0.03,0.12
17.100,-0.09,-0.01,-0.14,0.17
17.110,-0.14,-0.02,-0.10,0.17
17.120,-0.17,0.01,-0.06,0.18
17.130,-0.17,0.05,-0.02,0.18
17.140,-0.16,0.06,0.00,0.18
17.150,-0.17,0.05,0.02,0.18
17.160,-0.14,0.05,-0.01,0.15
17.170,-0.15,0.04,-0.01,0.16
17.180,-0.15,0.03,-0.04,0.15
17.190,-0.15,0.03,-0.03,0.16
17.200,-0.15,0.01,0.01,0.15
17.210,-0.16,0.01,0.03,0.16
17.220,-0.14,-0.01,0.04,0.14
17.230,-0.12,0.01,0.03,0.12
17.240,-0.11,0.01,0.02,0.12
17.250,-0.08,0.00,0.01,0.08
17.260,-0.05,0.00,-0.02,0.06
17.270,-0.04,0.02,-0.08,0.09
17.280,-0.04,0.01,-0.10,0.11
17.290,-0.08,0.01,-0.07,0.10
17.300,-0.15,-0.00,-0.01,0.15
17.310,-0.18,-0.00,0.04,0.18
17.320,-0.17,0.01,0.05,0.18
17.330,-0.17,0.00,0.05,0.17
17.340,-0.13,0.00,-0.00,0.13
17.350,-0.11,-0.01,-0.05,0.12
17.360,-0.10,0.00,-0.06,0.12
17.370,-0.11,-0.04,-0.07,0.13
17.380,-0.13,-0.02,-0.01,0.13
17.390,-0.14,0.03,0.02,0.14
17.400,-0.14,0.02,0.00,0.14
17.410,-0.13,-0.02,0.01,0.13
17.420,-0.07,-0.01,0.03,0.08
17.430,-0.02,-0.03,0.01,0.04
17.440,-0.00,-0.04,0.00,0.04
17.450,-0.02,-0.03,0.01,0.03
17.460,-0.05,-0.05,0.02,0.07
17.470,-0.11,-0.05,-0.01,0.12
17.480,-0.14,-0.04,-0.01,0.14
17.490,-0.13,-0.01,0.02,0.14
17.500,-0.14,-0.01,0.02,0.14
17.510,-0.14,-0.02,0.02,0.14
17.520,-0.14,-0.02,0.00,0.14
17.530,-0.13,-0.02,-0.01,0.13
17.540,-0.13,-0.01,-0.02,0.13
17.550,-0.10,-0.04,-0.05,0.12
17.560,-0.11,-0.04,-0.05,0.13
17.570,-0.11,-0.03,-0.02,0.12
17.580,-0.14,-0.03,-0.00,0.14
17.590,-0.15,-0.02,-0.00,0.16
17.600,-0.14,-0.01,-0.01,0.14
17.610,-0.10,0.01,-0.02,0.11
17.620,-0.07,0.03,-0.05,0.10
17.630,-0.04,0.01,-0.08,0.09
17.640,-0.02,0.00,-0.03,0.04
17.650,-0.03,0.01,-0.02,0.04
17.660,-0.02,0.02,-0.04,0.05
17.670,-0.10,0.05,-0.02,0.11
17.680,-0.17,0.02,0.03,0.17
17.690,-0.20,-0.01,0.05,0.21
17.700,-0.16,0.05,0.06,0.18
17.710,-0.13,0.05,-0.01,0.14
17.720,-0.17,0.05,-0.01,0.17
17.730,-0.15,0.04,0.05,0.16
17.740,-0.08,0.02,0.05,0.09
17.750,-0.07,0.03,0.04,0.09
17.760,-0.05,0.05,0.01,0.07
17.770,-0.02,0.03,0.02,0.04
17.780,-0.03,-0.00,0.01,0.04
17.790,-0.05,-0.01,0.01,0.05
17.800,-0.04,-0.01,0.00,0.04
17.810,-0.05,-0.05,-0.02,0.07
17.821,-0.07,-0.05,-0.03,0.09
17.830,-0.06,-0.05,-0.04,0.09
17.841,-0.07,-0.06,-0.07,0.11
17.850,-0.07,-0.03,-0.06,0.10
17.861,-0.07,-0.04,-0.03,0.09
17.871,-0.09,-0.01,-0.04,0.10
17.881,-0.14,-0.01,-0.02,0.14
17.891,-0.21,-0.03,-0.03,0.21
17.901,-0.21,-0.02,-0.03,0.21
17.911,-0.19,-0.02,0.01,0.19
17.921,-0.15,-0.03,-0.01,0.16
17.931,-0.04,-0.03,-0.08,0.09
17.941,0.01,0.02,-0.10,0.11
17.950,0.02,0.07,-0.09,0.11
17.961,-0.05,0.12,-0.09,0.16
17.971,-0.16,0.13,-0.06,0.22
17.981,-0.27,0.17,-0.06,0.32
17.991,-0.34,0.20,0.02,0.40
18.001,-0.40,0.19,0.06,0.44
18.011,-0.39,0.15,0.04,0.42
18.021,-0.33,0.08,0.06,0.35
18.031,-0.24,0.00,0.06,0.25
18.041,-0.14,-0.07,0.03,0.16
18.051,-0.06,-0.12,-0.02,0.14
18.061,-0.01,-0.19,-0.04,0.19
18.071,0.01,-0.18,-0.10,0.21
18.081,-0.00,-0.21,-0.04,0.21
18.091,-0.07,-0.21,0.07,0.23
18.101,-0.09,-0.22,0.06,0.24
18.111,-0.09,-0.21,0.04,0.23
18.121,-0.09,-0.17,0.07,0.21
18.131,-0.04,-0.11,0.04,0.13
18.141,-0.02,-0.04,-0.05,0.07
18.151,-0.08,-0.00,-0.03,0.08
18.161,-0.14,0.04,0.00,0.15
18.171,-0.18,0.09,0.06,0.22
18.181,-0.23,0.09,0.09,0.26
18.191,-0.25,0.08,0.04,0.26
18.201,-0.17,0.09,0.03,0.20
18.211,-0.12,0.07,0.03,0.15
18.221,-0.06,0.05,-0.02,0.08
18.231,0.01,0.04,-0.06,0.07
18.241,0.02,0.02,-0.04,0.05
18.251,0.04,0.00,-0.03,0.05
18.261,0.05,-0.02,-0.01,0.06
18.271,0.02,-0.06,-0.02,0.07
18.281,0.00,-0.09,-0.04,0.10
18.291,-0.07,-0.10,-0.07,0.14
18.301,-0.10,-0.08,-0.02,0.13
18.311,-0.15,-0.06,0.00,0.16
18.321,-0.13,-0.05,-0.06,0.15
18.331,-0.11,-0.04,-0.06,0.13
18.341,-0.11,-0.02,-0.03,0.12
18.351,-0.15,-0.01,-0.02,0.15
18.361,-0.12,-0.01,-0.02,0.12
18.371,-0.16,0.00,-0.05,0.17
18.381,-0.18,0.01,-0.05,0.19
18.391,-0.17,0.04,-0.02,0.18
18.401,-0.17,0.07,-0.05,0.19
18.411,-0.12,0.07,-0.09,0.16
18.421,-0.09,0.05,-0.07,0.12
18.431,-0.08,0.03,-0.08,0.12
18.441,-0.11,0.03,-0.07,0.13
18.451,-0.09,0.07,-0.07,0.14
18.461,-0.11,0.06,-0.05,0.13
18.471,-0.15,0.08,0.00,0.17
18.481,-0.13,0.10,0.02,0.17
18.491,-0.17,0.11,0.02,0.20
18.501,-0.19,0.10,0.04,0.22
18.511,-0.21,0.10,0.08,0.24
18.521,-0.25,0.09,0.07,0.27
18.531,-0.22,0.12,0.06,0.25
18.541,-0.17,0.10,0.05,0.21
18.551,-0.12,0.08,-0.01,0.15
18.561,-0.07,0.05,-0.05,0.10
18.571,-0.03,0.10,-0.08,0.13
18.581,-0.01,0.06,-0.09,0.11
18.591,-0.05,0.02,-0.04,0.07
18.601,-0.11,0.03,-0.01,0.11
18.611,-0.11,0.01,0.05,0.12
18.621,-0.12,0.02,0.03,0.12
18.631,-0.15,0.00,0.02,0.15
18.641,-0.24,-0.01,0.06,0.24
18.651,-0.23,0.01,0.03,0.23
18.661,-0.11,0.03,-0.03,0.12
18.671,-0.12,0.02,0.00,0.13
18.681,-0.10,-0.01,-0.02,0.10
18.691,-0.05,-0.01,-0.03,0.06
18.701,-0.03,-0.03,-0.02,0.04
18.711,-0.07,-0.02,0.00,0.07
18.721,-0.02,-0.03,0.00,0.04
18.731,-0.05,-0.06,0.03,0.08
18.741,-0.09,-0.12,0.04,0.15
18.751,-0.10,-0.10,-0.01,0.14
18.761,-0.13,-0.09,-0.01,0.16
18.771,-0.13,-0.11,0.02,0.17
18.781,-0.15,-0.11,-0.03,0.19
18.791,-0.17,-0.10,-0.05,0.20
18.801,-0.17,-0.07,-0.05,0.19
18.811,-0.16,-0.06,-0.03,0.17
18.821,-0.14,-0.07,-0.05,0.17
18.831,-0.14,-0.11,-0.05,0.19
18.841,-0.10,-0.06,-0.09,0.15
18.851,-0.06,-0.02,-0.12,0.13
18.861,-0.09,-0.05,-0.09,0.13
18.871,-0.15,-0.04,-0.13,0.20
18.881,-0.16,-0.03,-0.11,0.20
18.891,-0.13,-0.05,-0.07,0.16
18.901,-0.13,-0.01,-0.07,0.15
18.911,-0.17,0.01,-0.07,0.18
18.921,-0.19,0.03,-0.11,0.22
18.931,-0.20,0.06,-0.11,0.23
18.941,-0.23,0.03,-0.04,0.23
18.951,-0.25,0.01,-0.02,0.25
18.961,-0.20,0.01,-0.03,0.21
18.971,-0.14,0.01,0.00,0.14
18.981,-0.11,0.01,0.03,0.11
18.991,-0.06,-0.01,-0.01,0.06
19.001,-0.03,-0.03,-0.02,0.05
19.011,-0.03,-0.05,-0.02,0.06
19.021,-0.01,-0.06,-0.01,0.06
19.031,-0.04,-0.09,0.02,0.10
19.041,-0.02,-0.09,0.01,0.09
19.051,-0.06,-0.06,0.03,0.09
19.061,-0.08,-0.05,0.05,0.11
19.071,-0.13,-0.03,0.08,0.15
19.081,-0.15,-0.03,0.09,0.18
19.091,-0.14,-0.02,0.06,0.16
19.101,-0.12,-0.09,0.04,0.15
19.111,-0.07,-0.04,-0.05,0.09
19.121,-0.09,0.04,-0.05,0.11
19.131,-0.06,-0.01,0.04,0.07
19.141,-0.08,-0.03,-0.04,0.10
19.151,-0.15,0.03,-0.03,0.15
19.161,-0.13,0.03,0.00,0.13
19.171,-0.15,0.07,0.00,0.16
19.181,-0.18,0.04,0.07,0.20
19.191,-0.18,-0.01,0.00,0.18
19.201,-0.10,0.02,-0.04,0.11
19.211,-0.04,0.06,-0.04,0.08
19.221,-0.02,0.03,-0.05,0.06
19.232,-0.05,-0.01,-0.03,0.06
19.242,-0.07,0.01,-0.06,0.10
19.252,-0.09,0.02,-0.02,0.10
19.262,-0.11,0.01,0.02,0.11
19.272,-0.12,0.04,0.06,0.14
19.281,-0.15,0.09,0.05,0.18
19.292,-0.12,0.08,0.06,0.16
19.301,-0.13,0.06,0.05,0.15
19.312,-0.12,0.06,0.03,0.14
19.322,-0.13,0.05,0.05,0.14
19.332,-0.15,0.06,0.01,0.16
19.342,-0.17,0.03,-0.01,0.17
19.352,-0.16,0.03,-0.03,0.17
19.362,-0.19,0.01,0.02,0.19
19.372,-0.16,-0.00,-0.00,0.16
19.382,-0.08,-0.01,-0.07,0.11
19.392,-0.06,-0.03,-0.05,0.08
19.402,-0.03,-0.05,-0.06,0.08
19.412,-0.04,0.00,-0.08,0.08
19.422,-0.05,0.01,-0.04,0.07
19.432,-0.09,0.01,-0.04,0.10
19.442,-0.14,0.01,-0.01,0.14
19.452,-0.15,0.03,-0.01,0.15
19.462,-0.10,0.04,-0.05,0.12
19.472,-0.09,0.00,-0.04,0.10
19.482,-0.06,0.02,-0.04,0.08
19.492,-0.05,0.03,-0.05,0.07
19.502,-0.10,0.02,-0.01,0.10
19.512,-0.11,-0.01,-0.00,0.11
19.522,-0.12,-0.02,0.04,0.13
19.532,-0.12,0.01,-0.00,0.12
19.542,-0.17,0.01,0.03,0.18
19.552,-0.17,-0.03,-0.07,0.18
19.562,-0.12,-0.06,-0.06,0.15
19.572,-0.10,-0.00,0.02,0.10
19.582,-0.15,-0.00,-0.01,0.15
19.592,-0.12,-0.05,-0.04,0.14
19.602,-0.05,-0.00,-0.06,0.07
19.612,-0.04,0.01,-0.04,0.06
19.622,-0.05,0.01,-0.05,0.07
19.632,-0.06,0.03,-0.02,0.07
19.642,-0.09,-0.01,-0.00,0.09
19.652,-0.12,-0.02,-0.02,0.12
19.662,-0.13,-0.00,-0.02,0.13
19.672,-0.15,0.02,0.02,0.15
19.682,-0.17,0.04,-0.05,0.18
19.692,-0.13,0.03,-0.17,0.21
19.702,-0.14,0.05,-0.09,0.18
19.712,-0.19,0.05,-0.01,0.20
19.722,-0.23,0.02,0.06,0.24
19.732,-0.21,0.01,0.06,0.22
19.742,-0.19,-0.02,0.06,0.20
19.752,-0.10,-0.08,0.05,0.14
19.762,-0.04,-0.03,-0.06,0.08
19.772,-0.03,-0.08,-0.08,0.11
19.782,-0.06,-0.14,-0.01,0.16
19.792,-0.01,-0.12,-0.01,0.12
19.802,0.02,-0.05,-0.04,0.06
19.812,-0.05,-0.02,-0.04,0.07
19.822,-0.07,-0.02,-0.02,0.08
19.832,-0.12,-0.01,0.04,0.12
19.842,-0.18,-0.04,0.08,0.20
19.852,-0.20,-0.02,0.06,0.21
19.862,-0.20,0.00,0.04,0.20
19.872,-0.24,0.03,0.04,0.25
19.882,-0.21,0.05,-0.03,0.22
19.892,-0.17,0.03,-0.03,0.18
19.902,-0.07,-0.01,-0.09,0.11
19.912,-0.09,-0.09,-0.08,0.15
19.922,-0.18,-0.03,0.06,0.19
19.932,-0.04,0.04,0.09,0.11
19.942,0.02,0.09,-0.05,0.10
19.952,0.05,0.08,-0.06,0.11
19.962,-0.03,0.08,-0.10,0.13
19.972,-0.06,0.00,-0.06,0.08
19.982,-0.13,-0.04,-0.00,0.13
19.992,-0.13,-0.03,-0.03,0.14
20.001,-0.10,-0.02,0.02,0.10
20.011,-0.15,-0.01,0.09,0.18
20.021,-0.21,-0.01,-0.00,0.21
20.031,-0.20,-0.03,-0.09,0.22
20.041,-0.14,0.01,-0.10,0.17
20.051,-0.15,-0.01,-0.04,0.15
20.061,-0.17,-0.04,0.02,0.17
20.071,-0.15,-0.08,-0.01,0.17
20.081,-0.12,-0.04,-0.05,0.14
20.091,-0.15,0.01,-0.05,0.16
20.101,-0.11,0.04,-0.05,0.13
20.111,-0.08,0.03,-0.05,0.10
20.121,-0.09,-0.01,-0.03,0.10
20.131,-0.08,0.00,-0.03,0.09
20.141,-0.07,0.02,-0.00,0.08
20.151,-0.03,0.01,0.05,0.06
20.161,-0.04,-0.00,0.15,0.15
20.171,-0.19,0.04,0.06,0.21
20.181,-0.20,0.06,-0.15,0.26
20.191,-0.10,0.03,-0.09,0.14
20.201,-0.05,0.06,0.03,0.09
20.211,-0.11,0.04,0.05,0.12
20.221,-0.11,0.01,-0.03,0.11
20.231,-0.06,0.01,-0.02,0.07
20.241,0.01,0.03,0.10,0.11
20.251,-0.16,0.07,0.09,0.19
20.261,-0.26,0.06,-0.06,0.27
20.271,-0.18,-0.01,-0.12,0.21
20.281,-0.12,0.00,-0.09,0.15
20.291,-0.13,0.02,-0.10,0.16
20.301,-0.09,-0.04,-0.09,0.13
20.311,-0.02,-0.10,-0.02,0.11
20.321,0.02,-0.09,0.02,0.10
20.331,-0.05,-0.03,0.07,0.09
20.341,-0.10,0.03,0.07,0.12
20.351,-0.07,0.03,0.03,0.08
20.361,-0.08,0.03,-0.00,0.09
20.374,-0.26,0.06,0.01,0.27
20.384,-0.27,0.01,-0.03,0.28
20.394,-0.15,-0.01,0.03,0.15
20.404,-0.13,0.06,0.09,0.17
20.414,-0.13,0.04,0.04,0.14
20.424,-0.05,0.00,0.03,0.06
20.434,-0.05,0.01,0.06,0.08
20.444,-0.08,0.02,0.06,0.10
20.454,-0.13,0.01,0.10,0.16
20.464,-0.15,0.04,0.11,0.19
20.474,-0.17,0.03,0.05,0.18
20.484,-0.18,-0.04,0.07,0.20
20.494,-0.20,-0.03,0.05,0.21
20.504,-0.20,0.04,0.07,0.21
20.514,-0.06,0.07,0.13,0.16
20.524,-0.08,0.10,0.21,0.24
20.534,-0.02,0.23,0.12,0.25
20.544,0.03,0.18,-0.21,0.28
20.554,-0.02,-0.01,-0.44,0.44
20.564,-0.10,-0.08,-0.35,0.38
20.574,-0.16,-0.06,-0.16,0.23
20.584,-0.10,-0.01,-0.05,0.12
20.594,-0.15,-0.06,-0.08,0.18
20.604,-0.15,-0.11,-0.03,0.19
20.614,-0.19,-0.11,-0.00,0.22
20.624,-0.24,-0.11,0.05,0.27
20.634,-0.18,-0.12,-0.03,0.22
20.644,-0.13,-0.12,-0.20,0.27
20.654,-0.12,-0.10,-0.18,0.24
20.664,-0.07,-0.09,-0.08,0.14
20.674,0.00,-0.11,-0.05,0.12
20.684,-0.07,-0.09,-0.02,0.11
20.694,-0.14,-0.05,0.04,0.16
20.704,-0.13,0.02,-0.03,0.14
20.714,-0.12,-0.06,-0.10,0.16
20.724,-0.11,-0.07,-0.07,0.15
20.734,-0.10,0.02,-0.02,0.10
20.744,-0.07,0.02,-0.00,0.07
20.754,-0.14,-0.02,-0.04,0.15
20.764,-0.12,-0.04,-0.05,0.14
20.774,-0.12,-0.05,0.02,0.13
20.784,-0.17,0.00,0.01,0.17
20.794,-0.10,0.04,-0.10,0.14
20.804,-0.06,-0.01,-0.10,0.12
20.814,-0.08,-0.00,-0.08,0.11
20.824,-0.13,-0.05,-0.07,0.16
20.834,-0.15,-0.06,0.03,0.16
20.844,-0.11,0.01,0.14,0.18
20.854,-0.18,0.06,0.10,0.21
20.864,-0.18,0.04,0.09,0.21
20.874,-0.14,0.04,0.09,0.17
20.884,-0.14,0.05,-0.00,0.15
20.894,-0.08,-0.00,0.05,0.10
20.904,-0.04,-0.02,0.09,0.10
20.914,-0.01,0.05,-0.03,0.06
20.924,-0.02,0.02,-0.10,0.10
20.934,-0.07,-0.04,-0.03,0.08
20.944,-0.07,-0.07,0.09,0.13
20.954,-0.10,-0.04,0.17,0.20
20.964,-0.05,0.00,0.06,0.08
20.974,-0.05,-0.05,-0.07,0.10
20.984,-0.08,-0.08,-0.07,0.13
20.994,0.01,-0.03,-0.02,0.04
21.004,0.01,0.01,-0.00,0.01
21.014,-0.13,-0.00,-0.00,0.13
21.024,-0.13,-0.10,-0.08,0.18
21.034,-0.11,-0.01,-0.12,0.17
21.044,-0.16,0.03,-0.09,0.18
21.054,-0.20,-0.04,0.04,0.21
21.064,-0.19,-0.02,0.08,0.20
21.074,-0.18,0.05,0.00,0.19
21.084,-0.19,0.05,-0.01,0.20
21.094,-0.21,-0.00,0.00,0.21
21.104,-0.16,-0.03,0.01,0.16
21.114,-0.08,0.03,0.02,0.09
21.124,-0.06,0.01,0.07,0.09
21.134,-0.14,-0.02,0.04,0.15
21.144,-0.14,-0.03,-0.03,0.15
21.154,-0.11,-0.01,-0.01,0.11
21.164,-0.08,-0.00,0.00,0.08
21.174,-0.09,0.02,-0.05,0.10
21.184,-0.09,0.03,0.03,0.10
21.194,-0.12,0.08,0.11,0.18
21.204,-0.14,0.06,0.03,0.16
21.214,-0.15,0.03,0.01,0.15
21.224,-0.16,0.03,0.07,0.17
21.234,-0.14,0.04,0.02,0.14
21.244,-0.11,0.05,-0.04,0.13
21.254,-0.06,0.04,-0.01,0.07
21.264,-0.04,0.03,-0.02,0.06
21.274,-0.03,0.02,-0.03,0.05
21.284,-0.06,-0.02,0.02,0.06
21.294,-0.11,0.03,0.00,0.12
21.304,-0.17,0.09,-0.11,0.23
21.314,-0.23,0.10,-0.15,0.29
21.324,-0.26,0.10,-0.07,0.29
21.334,-0.27,0.06,0.02,0.28
21.344,-0.24,0.01,-0.02,0.24
21.354,-0.19,-0.02,-0.05,0.20
21.364,-0.13,-0.00,-0.07,0.14
21.374,-0.04,0.01,-0.12,0.12
21.384,0.02,-0.02,-0.12,0.12
21.394,-0.02,-0.08,-0.00,0.09
21.404,-0.09,-0.06,0.04,0.11
21.414,-0.09,-0.05,-0.03,0.11
21.424,-0.10,-0.06,-0.01,0.12
21.434,-0.17,-0.02,0.05,0.18
21.444,-0.17,-0.00,0.09,0.20
21.454,-0.14,-0.00,0.07,0.15
21.464,-0.11,0.00,-0.03,0.12
21.474,-0.11,0.01,-0.05,0.12
21.484,-0.14,-0.01,-0.04,0.14
21.494,-0.08,-0.00,-0.05,0.10
21.504,-0.04,0.01,-0.05,0.06
21.514,-0.03,-0.01,-0.00,0.03
21.525,-0.06,0.03,0.04,0.08
21.535,-0.11,0.02,0.02,0.12
21.545,-0.08,-0.01,0.01,0.08
21.554,-0.09,0.02,-0.00,0.09
21.564,-0.12,0.01,-0.03,0.12
21.575,-0.18,-0.02,-0.05,0.18
21.584,-0.26,-0.02,-0.02,0.26
21.595,-0.25,-0.04,-0.01,0.25
21.605,-0.15,-0.02,-0.03,0.15
21.614,-0.14,-0.02,-0.01,0.14
21.624,-0.17,-0.02,0.01,0.17
21.634,-0.14,-0.01,-0.03,0.14
21.645,-0.14,-0.04,-0.02,0.15
21.655,-0.18,-0.04,-0.02,0.19
21.665,-0.16,-0.02,-0.07,0.18
21.675,-0.11,-0.02,-0.04,0.12
21.685,-0.04,-0.07,0.00,0.08
21.695,-0.07,-0.03,0.05,0.09
21.705,-0.06,-0.04,-0.04,0.08
21.715,-0.06,-0.08,-0.09,0.14
21.725,-0.05,-0.04,-0.01,0.07
21.735,-0.12,-0.03,0.11,0.17
21.745,-0.25,-0.07,0.08,0.28
21.755,-0.19,-0.09,-0.07,0.22
21.765,-0.14,-0.06,-0.04,0.16
21.775,-0.14,-0.01,-0.03,0.14
21.785,-0.12,-0.05,-0.08,0.16
21.795,-0.10,-0.05,-0.08,0.14
21.805,-0.10,-0.03,-0.05,0.11
21.815,-0.09,-0.01,-0.06,0.11
21.825,-0.10,0.00,-0.04,0.11
21.835,-0.13,0.01,-0.02,0.13
21.845,-0.16,-0.00,-0.02,0.16
21.855,-0.09,0.00,-0.04,0.09
21.865,-0.05,-0.02,-0.05,0.07
21.875,-0.12,0.04,-0.02,0.13
21.885,-0.11,0.02,-0.07,0.14
21.895,-0.10,-0.02,-0.06,0.12
21.905,-0.11,0.01,-0.03,0.12
21.915,-0.13,-0.01,-0.03,0.14
21.925,-0.11,0.04,-0.05,0.12
21.935,-0.10,0.04,-0.01,0.11
21.945,-0.11,0.02,0.02,0.12
21.955,-0.12,0.03,0.02,0.13
21.965,-0.10,0.03,0.02,0.11
21.975,-0.08,0.02,0.05,0.09
21.985,-0.07,0.02,0.04,0.08
21.995,-0.08,0.02,0.05,0.10
22.005,-0.08,0.04,0.07,0.12
22.015,-0.06,0.04,0.06,0.09
22.025,-0.04,0.05,0.07,0.09
22.035,-0.01,0.05,0.03,0.06
22.045,-0.01,0.08,0.00,0.08
22.055,-0.03,0.05,0.04,0.07
22.065,-0.02,0.01,0.05,0.05
22.075,0.01,-0.02,-0.03,0.04
22.085,0.03,-0.01,-0.08,0.09
22.095,-0.05,0.02,-0.03,0.06
22.105,-0.03,0.02,0.15,0.15
22.115,-0.01,-0.00,0.03,0.03
22.125,-0.06,0.04,-0.06,0.09
22.135,-0.20,-0.03,0.02,0.21
22.145,-0.33,0.00,0.06,0.34
22.155,-0.24,-0.05,0.02,0.24
22.165,-0.19,-0.09,0.06,0.22
22.175,-0.15,-0.07,0.22,0.27
22.185,-0.21,0.03,0.21,0.30
22.195,-0.11,0.02,0.10,0.15
22.205,-0.12,-0.02,-0.03,0.13
22.215,-0.08,0.01,0.01,0.09
22.225,-0.14,-0.03,0.01,0.14
22.235,-0.08,-0.16,0.04,0.18
22.245,0.04,-0.16,0.01,0.16
22.255,-0.05,-0.07,-0.06,0.10
22.265,-0.07,-0.03,-0.04,0.09
22.275,0.01,-0.09,-0.04,0.10
22.285,-0.00,-0.09,0.05,0.10
22.295,-0.16,-0.09,-0.01,0.18
22.305,-0.20,0.10,-0.07,0.24
22.315,-0.13,0.31,-0.04,0.33
22.325,-0.17,0.14,0.14,0.27
22.335,-0.33,0.02,0.55,0.64
22.345,-0.19,0.10,0.63,0.67
22.355,0.05,0.14,0.51,0.54
22.365,0.05,0.14,0.37,0.40
22.375,-0.10,0.02,0.25,0.27
22.385,-0.09,0.00,0.55,0.56
22.395,0.30,0.05,0.90,0.95
22.405,0.71,0.09,0.58,0.92
22.415,1.64,-0.21,0.92,1.89
22.425,0.92,-0.18,1.58,1.83
22.435,0.12,0.22,0.60,0.65
22.445,-0.61,0.70,-0.01,0.93
22.455,-0.90,0.70,-1.07,1.57
22.465,-0.51,0.77,-1.13,1.46
22.475,-0.07,0.79,-0.85,1.16
22.485,0.02,0.71,-0.45,0.85
22.495,-0.09,0.50,-0.07,0.51
22.505,-0.32,0.43,0.22,0.58
22.515,-0.79,0.50,0.37,1.00
22.525,-0.96,0.63,0.35,1.20
22.535,-0.95,0.71,0.18,1.20
22.545,-0.65,0.63,-0.14,0.92
22.555,-0.26,0.51,-0.30,0.65
22.565,-0.00,0.39,0.01,0.39
22.575,0.03,0.29,0.31,0.42
22.585,-0.22,0.22,0.50,0.59
22.595,-0.40,0.15,0.62,0.75
22.605,-0.83,0.05,1.28,1.53
22.615,-0.66,0.22,1.48,1.64
22.625,-0.46,0.34,0.93,1.09
22.635,-0.48,0.20,0.48,0.70
22.645,-0.56,-0.10,0.24,0.61
22.655,-0.70,-0.29,0.09,0.76
22.665,-0.82,-0.31,0.28,0.92
22.675,-0.84,-0.18,0.45,0.97
22.685,-0.76,-0.03,0.09,0.76
22.695,-0.74,0.14,-0.61,0.97
22.705,-0.96,0.36,-0.97,1.41
22.715,-1.54,0.67,-0.49,1.75
22.725,-1.64,0.55,-0.09,1.74
22.735,-1.42,0.52,-0.04,1.51
22.745,-0.84,0.32,-0.26,0.94
22.755,-0.20,-0.16,-0.68,0.73
22.765,1.35,-1.42,-0.95,2.18
22.775,4.40,-2.21,-2.56,5.55
22.785,3.99,-2.06,-4.59,6.42
22.795,2.98,-2.08,-3.02,4.72
22.805,1.57,-0.85,-0.27,1.80
22.815,-0.65,-0.11,3.12,3.19
22.825,-1.32,0.13,3.40,3.65
22.835,-0.14,0.02,1.61,1.62
22.845,1.09,-0.24,0.46,1.21
22.855,1.92,-0.67,1.02,2.28
22.865,2.00,-1.28,1.02,2.58
22.875,1.20,-1.38,-0.78,1.99
22.885,0.00,-0.88,1.60,1.83
22.895,-0.11,-0.14,2.51,2.52
22.905,0.24,0.21,1.17,1.22
22.915,0.54,0.32,-0.09,0.64
22.925,1.17,0.33,-0.54,1.33
22.935,1.56,0.39,-0.87,1.83
22.945,1.43,0.42,-1.03,1.81
22.955,1.35,0.35,-1.03,1.74
22.966,1.17,0.18,-1.10,1.61
22.975,0.66,-0.03,-1.04,1.24
22.985,0.54,-0.21,-1.29,1.42
22.995,0.45,-1.10,-0.43,1.26
23.006,-0.10,-0.98,-0.09,0.99
23.016,0.69,-0.69,-1.96,2.19
23.026,1.37,-1.04,-3.31,3.73
23.035,2.58,-1.17,-2.66,3.89
23.045,0.41,-0.12,-4.86,4.88
23.055,0.88,0.03,-4.32,4.41
23.066,0.67,-0.16,-3.68,3.75
23.076,-0.31,-0.36,-3.90,3.93
23.086,-0.35,-0.62,-4.05,4.11
23.096,0.34,-0.76,-4.06,4.14
23.106,1.23,-0.67,-3.46,3.73
23.116,1.33,-0.40,-3.03,3.33
23.126,0.75,-0.31,-2.61,2.73
23.136,0.06,-0.34,-2.09,2.12
23.146,-0.30,-0.16,-2.11,2.14
23.156,-0.79,0.17,-2.58,2.71
23.166,-1.50,0.49,-2.86,3.27
23.176,-6.41,1.38,5.25,8.40
23.186,-10.17,2.65,8.87,13.75
23.196,-2.06,0.90,-0.51,2.30
23.206,1.69,-1.55,0.19,2.30
23.216,1.94,-1.31,-0.36,2.37
23.226,0.78,-0.62,0.42,1.08
23.236,0.16,-0.42,0.73,0.86
23.246,-0.00,-0.41,1.04,1.11
23.256,0.10,-0.35,1.46,1.50
23.266,0.25,-0.38,1.57,1.64
23.276,0.25,-0.58,1.34,1.48
23.286,-0.03,-0.68,1.00,1.20
23.296,-0.45,-0.54,0.75,1.02
23.306,-0.64,-0.40,0.53,0.92
23.316,-0.59,-0.34,0.37,0.77
23.326,-0.62,-0.28,0.33,0.76
23.336,-0.75,-0.15,0.28,0.82
23.346,-0.83,-0.02,0.19,0.85
23.356,-0.28,-0.13,0.22,0.38
23.366,0.17,-0.33,0.35,0.51
23.376,-0.09,-0.32,0.66,0.73
23.386,-0.21,-0.28,1.03,1.09
23.396,-0.02,-0.29,1.16,1.20
23.406,0.23,-0.16,1.06,1.09
23.416,0.11,0.04,0.69,0.70
23.426,-0.02,0.27,0.20,0.34
23.436,0.02,0.42,-0.09,0.43
23.446,-0.04,0.30,-0.22,0.37
23.456,-0.00,0.17,-0.17,0.24
23.466,0.01,0.25,0.02,0.26
23.476,-0.09,0.11,0.20,0.24
23.486,-0.07,-0.10,0.28,0.30
23.496,0.03,-0.05,0.30,0.31
23.506,0.05,-0.03,0.10,0.11
23.516,-0.21,-0.08,-0.12,0.25
23.526,-0.42,-0.14,-0.07,0.45
23.536,-0.35,-0.29,0.04,0.46
23.546,-0.11,-0.29,0.36,0.47
23.556,-0.11,-0.12,0.51,0.54
23.566,-0.34,0.07,0.35,0.49
23.576,-0.41,0.13,-0.10,0.44
23.586,-0.43,0.11,-0.61,0.75
23.596,-0.39,0.41,-0.46,0.73
23.606,-0.12,0.83,-0.35,0.90
23.616,0.15,0.96,-0.16,0.99
23.626,0.24,0.95,-0.02,0.98
23.636,0.26,0.97,0.15,1.02
23.646,0.83,0.84,0.41,1.25
23.656,1.50,0.56,0.58,1.70
23.666,0.96,0.01,0.70,1.19
23.676,0.31,-0.38,0.36,0.61
23.686,0.00,-0.80,0.43,0.91
23.696,0.09,-0.62,0.45,0.77
23.706,-0.58,-0.68,0.29,0.93
23.716,-1.91,-1.20,0.45,2.30
23.726,-1.89,-0.98,0.17,2.14
23.736,-0.84,-0.35,-0.66,1.12
23.746,-0.29,-0.30,-1.79,1.84
23.756,-0.33,-0.68,-1.63,1.79
23.766,-0.39,-0.59,-0.67,0.98
23.776,-0.18,-0.20,-0.01,0.27
23.786,0.08,0.08,0.39,0.41
23.796,-0.24,0.38,0.20,0.49
23.806,-0.43,0.39,-0.02,0.58
23.816,-0.00,0.18,0.38,0.42
23.826,0.27,-0.06,0.62,0.68
23.836,0.00,-0.08,0.24,0.25
23.846,0.29,-0.21,0.05,0.36
23.856,0.16,-0.18,-0.12,0.27
23.866,-1.80,0.81,-0.88,2.16
23.876,-0.63,0.31,1.38,1.54
23.886,-0.86,0.72,0.03,1.12
23.896,-1.34,0.85,-1.34,2.08
23.906,-0.22,-0.22,0.28,0.41
23.916,-0.78,0.17,-0.57,0.98
23.926,-0.92,0.32,-0.96,1.37
23.936,-0.17,0.29,-1.27,1.32
23.946,0.96,0.25,-1.26,1.60
23.956,2.69,0.14,-0.34,2.72
23.966,3.69,-0.13,0.95,3.81
23.976,3.30,-0.56,1.27,3.58
23.986,2.21,-0.55,0.92,2.46
23.996,1.23,-0.40,1.10,1.70
24.006,0.37,-0.89,1.36,1.67
24.016,-0.86,-1.01,0.31,1.37
24.026,-1.66,-0.85,0.08,1.87
24.036,-2.17,-0.23,-0.08,2.19
24.046,-2.10,0.09,-0.50,2.16
24.056,-1.48,-0.03,-1.00,1.78
24.066,-0.87,-0.13,-1.63,1.85
24.076,-0.37,-0.33,-2.37,2.42
24.086,0.84,-0.74,-2.15,2.42
24.096,3.44,-0.89,-1.03,3.70
24.106,3.93,0.04,-0.33,3.95
24.116,2.07,1.06,-0.36,2.35
24.126,0.26,1.39,0.01,1.41
24.136,-0.64,1.72,0.53,1.91
24.146,-0.89,2.09,0.97,2.47
24.156,-1.77,3.23,0.63,3.74
24.166,-2.15,3.86,-0.12,4.42
24.176,-1.44,3.60,0.01,3.88
24.186,-1.17,3.12,1.39,3.60
24.196,-1.45,2.30,2.56,3.73
24.206,-1.81,1.80,3.52,4.35
24.216,-1.97,2.47,4.48,5.48
24.226,-1.48,2.60,5.31,6.09
24.236,-0.63,1.82,4.94,5.30
24.246,0.32,1.01,3.97,4.11
24.256,1.04,0.51,3.25,3.45
24.266,1.35,0.21,2.66,2.99
24.279,1.28,-0.19,2.20,2.56
24.286,1.32,-0.63,2.12,2.57
24.296,1.78,-1.24,2.20,3.09
24.307,2.27,-1.91,2.22,3.71
24.316,2.53,-2.57,2.06,4.15
24.326,2.18,-2.98,1.73,4.08
24.336,1.32,-2.63,1.53,3.32
24.346,0.51,-2.35,1.65,2.92
24.356,-0.06,-2.21,1.79,2.85
24.367,-0.22,-2.26,1.32,2.63
24.376,-0.49,-2.39,1.22,2.72
24.387,-0.46,-2.45,0.97,2.68
24.397,-0.12,-2.39,0.71,2.49
24.407,0.37,-2.45,0.44,2.52
24.417,0.58,-2.41,0.32,2.50
24.426,0.56,-1.96,0.36,2.07
24.437,0.59,-1.51,0.55,1.71
24.447,0.71,-1.50,0.58,1.76
24.457,0.91,-1.71,0.27,1.95
24.467,0.94,-1.48,-0.06,1.76
24.477,0.71,-1.05,-0.07,1.27
24.487,0.35,-1.00,-0.05,1.06
24.497,0.08,-1.40,-0.22,1.42
24.507,0.10,-1.78,-0.41,1.83
24.517,0.12,-1.73,-0.41,1.78
24.526,0.06,-1.54,-0.15,1.55
24.537,0.03,-1.52,-0.23,1.54
24.547,0.04,-1.69,-0.48,1.75
24.557,-0.04,-1.73,-0.74,1.88
24.567,-0.35,-1.45,-0.92,1.75
24.577,-0.57,-1.10,-1.02,1.60
24.587,-0.57,-0.94,-1.04,1.52
24.597,-0.25,-0.81,-1.69,1.89
24.607,-0.28,-0.41,-2.22,2.27
24.617,-0.66,-0.20,-1.74,1.88
24.627,-0.71,-0.49,-1.06,1.36
24.637,-0.50,-1.02,-0.65,1.31
24.647,-0.53,-1.44,-0.41,1.59
24.657,-0.46,-1.57,-0.20,1.65
24.667,-0.17,-1.52,-0.16,1.53
24.677,0.15,-1.39,-0.17,1.41
24.687,0.39,-1.18,-0.43,1.32
24.697,0.32,-0.91,-0.70,1.20
24.707,0.07,-0.79,-0.86,1.16
24.717,-0.12,-0.73,-0.97,1.22
24.727,-0.21,-0.66,-1.05,1.26
24.737,-0.12,-0.56,-1.18,1.31
24.747,0.03,-0.38,-1.34,1.39
24.757,0.10,-0.22,-1.30,1.32
24.767,0.14,-0.23,-1.00,1.04
24.777,0.17,-0.29,-0.66,0.74
24.787,0.09,-0.40,-0.36,0.55
24.797,-0.09,-0.44,-0.27,0.52
24.807,-0.27,-0.47,-0.22,0.58
24.817,-0.47,-0.42,-0.18,0.65
24.827,-0.60,-0.41,-0.21,0.75
24.838,-0.56,-0.48,-0.28,0.79
24.847,-0.52,-0.50,-0.38,0.82
24.857,-0.51,-0.49,-0.51,0.88
24.867,-0.47,-0.42,-0.48,0.79
24.877,-0.32,-0.32,-0.50,0.68
24.887,-0.14,-0.23,-0.60,0.66
24.897,0.02,-0.07,-0.73,0.73
24.907,0.03,0.18,-0.75,0.77
24.917,0.01,0.32,-0.65,0.72
24.927,0.10,0.24,-0.52,0.58
24.937,0.24,0.06,-0.38,0.45
24.947,0.21,-0.04,-0.33,0.40
24.957,-0.01,-0.08,-0.40,0.41
24.967,0.07,-0.14,-0.40,0.43
24.977,0.14,-0.03,-1.00,1.01
24.987,0.11,0.20,-1.28,1.30
24.997,0.19,0.11,-0.80,0.83
25.007,0.25,-0.20,-0.18,0.37
25.017,0.24,-0.35,0.21,0.47
25.027,0.15,-0.37,0.50,0.64
25.037,0.10,-0.32,0.68,0.76
