time,ax,ay,az,atotal
0.000,-0.02,0.23,-0.10,0.25
0.010,-0.04,-0.00,-0.32,0.32
0.020,-0.05,0.00,-0.45,0.46
0.030,-0.11,0.05,-0.55,0.56
0.040,-0.25,-0.05,-0.59,0.65
0.050,-0.34,-0.05,-0.61,0.70
0.060,-0.43,-0.01,-0.56,0.71
0.070,-0.54,0.00,-0.47,0.71
0.080,-0.48,0.02,-0.40,0.63
0.090,-0.47,0.07,-0.41,0.63
0.100,-0.45,0.04,-0.44,0.63
0.110,-0.37,0.05,-0.47,0.60
0.120,-0.33,0.00,-0.53,0.62
0.130,-0.29,-0.03,-0.60,0.67
0.140,-0.36,-0.05,-0.62,0.72
0.150,-0.53,-0.09,-0.60,0.81
0.160,-0.65,-0.11,-0.51,0.83
0.170,-0.59,-0.11,-0.45,0.75
0.180,-0.47,-0.06,-0.39,0.61
0.190,-0.36,0.02,-0.35,0.51
0.200,-0.30,0.04,-0.24,0.39
0.210,-0.32,0.03,-0.13,0.35
0.220,-0.44,0.02,-0.02,0.44
0.230,-0.50,0.02,0.04,0.50
0.240,-0.49,0.01,0.15,0.51
0.250,-0.46,0.00,0.30,0.55
0.260,-0.39,-0.00,0.41,0.56
0.270,-0.31,-0.01,0.47,0.56
0.280,-0.25,-0.03,0.59,0.64
0.290,-0.18,-0.05,0.67,0.70
0.300,-0.06,-0.04,0.64,0.64
0.310,-0.04,-0.01,0.55,0.55
0.320,-0.00,0.02,0.55,0.55
0.330,0.09,0.04,0.55,0.56
0.340,0.10,0.08,0.46,0.47
0.350,0.09,0.10,0.39,0.41
0.360,0.10,0.11,0.42,0.45
0.370,0.06,0.13,0.49,0.51
0.380,0.02,0.12,0.52,0.54
0.390,0.00,0.08,0.49,0.49
0.400,0.03,0.09,0.40,0.41
0.410,0.05,0.08,0.29,0.30
0.420,0.08,0.05,0.18,0.20
0.430,0.07,0.03,0.14,0.16
0.440,0.07,0.00,0.12,0.13
0.450,0.05,0.00,0.06,0.08
0.460,0.04,-0.01,-0.03,0.05
0.470,0.03,-0.01,-0.08,0.08
0.480,0.04,-0.01,-0.15,0.16
0.490,0.02,-0.02,-0.17,0.17
0.500,-0.07,-0.05,-0.18,0.20
0.510,-0.09,-0.02,-0.24,0.26
0.520,-0.11,0.00,-0.27,0.29
0.530,-0.17,-0.03,-0.26,0.31
0.540,-0.15,-0.02,-0.24,0.28
0.550,-0.13,-0.01,-0.18,0.22
0.560,-0.17,-0.00,-0.20,0.26
0.571,-0.15,-0.02,-0.28,0.32
0.580,-0.15,0.03,-0.28,0.32
0.590,-0.11,0.03,-0.19,0.22
0.600,-0.12,0.02,-0.11,0.17
0.610,-0.15,0.01,-0.12,0.19
0.620,-0.18,-0.01,-0.08,0.20
0.630,-0.16,-0.03,-0.05,0.17
0.641,-0.19,0.00,-0.00,0.19
0.650,-0.25,-0.04,0.10,0.28
0.660,-0.19,-0.05,0.09,0.22
0.670,-0.12,0.04,-0.12,0.17
0.681,-0.07,0.06,-0.22,0.24
0.690,0.01,0.05,-0.14,0.15
0.700,-0.09,0.05,-0.10,0.14
0.711,-0.11,0.09,0.00,0.14
0.720,-0.11,0.06,0.09,0.16
0.731,-0.08,0.08,0.20,0.23
0.741,-0.09,0.11,0.25,0.29
0.751,-0.05,0.11,0.21,0.24
0.761,-0.01,0.14,0.07,0.15
0.771,0.01,0.14,-0.09,0.16
0.781,0.05,0.11,-0.18,0.21
0.791,0.03,0.11,-0.21,0.24
0.801,0.03,0.09,-0.17,0.20
0.811,-0.09,0.00,-0.08,0.12
0.821,-0.13,0.01,0.00,0.13
0.831,-0.18,0.00,0.12,0.21
0.841,-0.14,0.01,0.18,0.23
0.851,-0.14,0.03,0.17,0.22
0.861,0.01,0.05,0.07,0.09
0.871,0.00,0.04,-0.13,0.14
0.881,-0.11,0.00,-0.39,0.41
0.891,0.02,-0.06,-0.60,0.60
0.901,-0.02,-0.06,-0.62,0.62
0.911,-0.12,-0.03,-0.30,0.32
0.921,-0.10,-0.08,0.02,0.13
0.931,-0.22,-0.13,0.11,0.27
0.941,-0.31,-0.15,0.07,0.36
0.951,-0.42,-0.27,-0.04,0.50
0.961,-0.34,-0.23,-0.19,0.46
0.971,-0.27,-0.04,-0.22,0.35
0.981,-0.22,0.02,-0.05,0.22
0.991,-0.16,-0.00,-0.15,0.22
1.001,-0.09,0.01,-0.19,0.21
1.011,0.01,0.04,-0.01,0.04
1.021,0.05,0.05,0.16,0.17
1.031,0.06,0.01,0.28,0.29
1.041,0.03,0.02,0.30,0.30
1.051,0.06,0.06,0.32,0.33
1.061,0.03,-0.03,0.27,0.28
1.071,0.07,-0.01,0.06,0.09
1.081,0.07,-0.01,-0.03,0.08
1.091,-0.02,-0.06,-0.08,0.10
1.101,-0.05,-0.06,-0.17,0.19
1.111,-0.01,-0.06,-0.15,0.17
1.121,-0.08,-0.11,-0.14,0.20
1.131,-0.18,-0.14,-0.15,0.27
1.141,-0.26,-0.13,-0.04,0.29
1.151,-0.26,-0.10,0.01,0.28
1.161,-0.27,-0.06,0.01,0.28
1.171,-0.28,-0.02,-0.01,0.28
1.181,-0.23,0.04,0.03,0.24
1.191,-0.25,0.05,0.05,0.26
1.201,-0.28,0.06,0.04,0.29
1.211,-0.23,0.04,0.09,0.25
1.221,-0.18,0.08,0.06,0.20
1.231,-0.14,0.06,0.11,0.19
1.241,-0.18,-0.04,0.17,0.26
1.251,-0.16,0.01,0.04,0.16
1.261,-0.02,0.06,-0.08,0.10
1.271,-0.08,0.05,-0.08,0.13
1.281,-0.08,-0.04,-0.13,0.15
1.291,0.02,0.04,-0.34,0.35
1.301,-0.03,-0.01,-0.22,0.22
1.311,0.02,0.09,0.10,0.13
1.321,0.01,0.19,0.22,0.29
1.331,-0.05,0.13,0.09,0.16
1.341,-0.16,0.07,-0.05,0.19
1.351,-0.16,0.03,-0.06,0.17
1.361,-0.19,0.03,-0.11,0.22
1.371,-0.12,0.08,-0.10,0.17
1.381,-0.10,0.05,-0.03,0.12
1.391,-0.21,-0.02,0.04,0.21
1.401,-0.11,-0.04,-0.09,0.15
1.411,-0.01,-0.05,-0.18,0.19
1.421,-0.03,-0.08,-0.30,0.31
1.431,-0.01,-0.11,-0.28,0.30
1.441,0.00,-0.09,-0.23,0.25
1.451,0.10,-0.06,-0.24,0.27
1.461,0.11,-0.10,-0.15,0.21
1.471,0.13,-0.11,-0.04,0.18
1.481,0.13,-0.11,-0.05,0.18
1.491,0.01,-0.09,-0.05,0.11
1.501,-0.07,-0.10,0.06,0.13
1.511,-0.15,-0.04,0.16,0.22
1.521,-0.19,0.04,0.18,0.26
1.531,-0.23,0.02,0.09,0.24
1.541,-0.23,0.01,0.01,0.23
1.551,-0.19,-0.01,0.05,0.20
1.561,-0.17,-0.01,0.04,0.18
1.571,-0.19,0.02,-0.03,0.20
1.581,-0.18,0.02,0.01,0.18
1.591,-0.16,0.00,0.07,0.17
1.601,-0.16,-0.01,0.01,0.17
1.611,-0.17,-0.03,-0.07,0.19
1.621,-0.13,0.01,-0.05,0.14
1.631,-0.14,0.01,-0.06,0.16
1.641,-0.16,-0.02,-0.07,0.17
1.651,-0.11,-0.05,-0.14,0.19
1.661,-0.05,-0.04,-0.23,0.24
1.671,-0.03,-0.05,-0.29,0.30
1.681,-0.01,-0.06,-0.24,0.25
1.691,-0.03,-0.08,-0.10,0.14
1.701,-0.07,-0.11,-0.04,0.14
1.711,-0.14,-0.09,-0.07,0.18
1.721,-0.23,-0.03,-0.04,0.24
1.731,-0.32,0.03,0.12,0.34
1.741,-0.33,0.08,0.24,0.42
1.751,-0.28,0.12,0.18,0.36
1.761,-0.21,0.16,0.04,0.27
1.771,-0.14,0.10,0.02,0.17
1.781,-0.12,-0.00,0.03,0.13
1.791,-0.10,-0.02,-0.07,0.12
1.801,-0.06,-0.01,-0.07,0.09
1.811,-0.05,-0.04,0.03,0.07
1.821,-0.09,-0.06,0.05,0.12
1.831,-0.08,-0.06,0.01,0.11
1.841,-0.01,-0.04,-0.11,0.11
1.851,-0.02,-0.01,-0.11,0.11
1.861,-0.04,-0.03,-0.09,0.10
1.871,-0.08,-0.03,-0.09,0.12
1.881,-0.14,-0.02,-0.05,0.15
1.891,-0.18,-0.03,0.07,0.19
1.901,-0.18,-0.03,0.05,0.19
1.911,-0.16,-0.00,0.01,0.16
1.921,-0.18,0.01,0.03,0.19
1.931,-0.20,0.03,0.01,0.21
1.941,-0.19,0.02,0.01,0.20
1.951,-0.22,0.04,0.00,0.22
1.962,-0.13,0.03,0.01,0.13
1.971,-0.11,0.01,-0.03,0.12
1.982,-0.04,0.01,-0.10,0.11
1.991,-0.00,-0.00,-0.08,0.08
2.002,0.03,0.01,-0.11,0.12
2.011,0.00,0.02,-0.21,0.21
2.022,-0.04,0.01,-0.11,0.12
2.032,-0.06,0.02,-0.03,0.07
2.042,-0.07,0.02,-0.04,0.08
2.052,-0.12,0.02,-0.01,0.12
2.062,-0.14,-0.00,0.04,0.14
2.072,-0.11,0.00,0.05,0.12
2.082,-0.10,0.01,-0.01,0.10
2.092,-0.06,0.02,-0.04,0.08
2.102,-0.04,0.01,-0.02,0.05
2.112,-0.06,-0.00,0.06,0.08
2.122,-0.05,-0.02,-0.03,0.06
2.131,-0.10,-0.01,-0.12,0.16
2.142,-0.14,0.01,0.02,0.14
2.152,-0.07,0.02,0.19,0.20
2.162,-0.08,0.03,0.21,0.23
2.172,-0.14,-0.02,0.04,0.15
2.182,-0.13,-0.02,-0.17,0.22
2.192,-0.12,-0.03,-0.21,0.25
2.202,-0.09,-0.03,-0.11,0.15
2.211,-0.07,-0.01,-0.03,0.07
2.222,-0.08,-0.01,-0.10,0.13
2.232,-0.09,-0.00,-0.10,0.14
2.242,-0.05,-0.02,-0.08,0.10
2.252,-0.07,-0.01,-0.03,0.08
2.262,-0.10,-0.01,-0.00,0.10
2.272,-0.12,-0.01,-0.03,0.12
2.282,-0.17,-0.02,-0.10,0.19
2.292,-0.14,-0.03,-0.17,0.23
2.302,-0.14,0.01,-0.17,0.22
2.312,-0.15,-0.02,-0.12,0.20
2.322,-0.19,-0.02,-0.00,0.19
2.332,-0.19,-0.01,0.12,0.22
2.342,-0.12,0.00,0.13,0.18
2.352,-0.09,-0.01,0.03,0.09
2.362,-0.09,-0.01,-0.03,0.09
2.372,-0.09,-0.01,-0.03,0.10
2.382,-0.09,-0.01,-0.05,0.10
2.392,-0.11,0.00,-0.04,0.11
2.402,-0.13,-0.02,0.00,0.13
2.412,-0.17,-0.02,-0.02,0.18
2.422,-0.19,-0.03,-0.07,0.21
2.432,-0.20,-0.02,-0.13,0.24
2.442,-0.22,-0.02,-0.10,0.24
2.452,-0.25,-0.03,0.02,0.26
2.462,-0.26,-0.03,0.03,0.27
2.472,-0.23,-0.01,-0.05,0.23
2.482,-0.25,-0.01,-0.10,0.27
2.492,-0.18,0.00,-0.05,0.18
2.502,-0.09,0.03,0.03,0.10
2.512,-0.06,0.05,0.06,0.10
2.522,-0.07,0.05,0.05,0.10
2.532,-0.06,0.03,0.05,0.08
2.542,0.00,0.05,0.01,0.05
2.552,0.06,0.04,0.06,0.10
2.562,0.09,0.02,0.14,0.17
2.572,0.10,0.02,0.12,0.16
2.582,0.07,-0.02,0.11,0.13
2.592,-0.02,-0.10,0.11,0.15
2.602,-0.08,-0.11,0.11,0.17
2.612,-0.11,-0.09,0.07,0.16
2.622,-0.16,-0.11,0.01,0.19
2.632,-0.22,-0.09,-0.08,0.25
2.642,-0.23,-0.07,-0.18,0.30
2.652,-0.30,-0.02,-0.29,0.42
2.662,-0.31,0.02,-0.39,0.50
2.672,-0.30,0.03,-0.26,0.40
2.682,-0.27,0.04,0.07,0.28
2.692,-0.18,0.05,0.29,0.34
2.702,-0.14,0.04,0.25,0.29
2.712,-0.10,0.04,0.09,0.14
2.722,-0.02,0.02,-0.03,0.04
2.732,0.03,-0.04,-0.12,0.12
2.742,0.08,-0.03,-0.16,0.18
2.752,0.09,-0.02,-0.19,0.20
2.762,0.13,-0.01,-0.09,0.16
2.772,0.14,0.02,0.05,0.15
2.782,0.12,0.03,0.09,0.15
2.792,0.08,0.06,0.09,0.13
2.802,0.03,0.11,0.12,0.17
2.812,-0.02,0.12,0.16,0.20
2.822,-0.12,0.11,0.15,0.22
2.832,-0.13,0.10,0.08,0.19
2.842,-0.14,0.11,-0.01,0.17
2.852,-0.14,0.10,-0.10,0.19
2.862,-0.16,0.09,-0.12,0.22
2.872,-0.20,0.07,-0.07,0.22
2.882,-0.22,0.07,0.04,0.23
2.892,-0.23,0.07,0.10,0.26
2.902,-0.24,0.04,0.08,0.26
2.912,-0.15,0.03,-0.05,0.16
2.922,-0.09,0.00,-0.14,0.16
2.932,-0.03,-0.02,-0.17,0.17
2.942,0.00,-0.03,-0.23,0.23
2.952,-0.06,-0.04,-0.34,0.35
2.962,-0.12,-0.04,-0.42,0.44
2.972,-0.15,-0.06,-0.40,0.43
2.982,-0.15,-0.07,-0.30,0.35
2.992,-0.10,-0.07,-0.13,0.18
3.002,-0.14,-0.11,-0.03,0.18
3.012,-0.21,-0.11,-0.08,0.25
3.022,-0.29,-0.06,-0.16,0.33
3.032,-0.32,-0.05,-0.16,0.36
3.042,-0.29,-0.04,-0.07,0.30
3.052,-0.17,-0.05,0.04,0.18
3.062,-0.09,-0.07,0.05,0.12
3.072,-0.11,-0.04,-0.07,0.14
3.082,-0.14,-0.00,-0.26,0.29
3.092,-0.15,-0.04,-0.26,0.30
3.102,-0.16,-0.06,-0.11,0.20
3.112,-0.14,-0.03,0.07,0.16
3.122,-0.09,-0.01,0.15,0.17
3.132,-0.06,-0.02,0.20,0.21
3.142,-0.02,-0.02,0.33,0.33
3.152,0.02,-0.03,0.35,0.36
3.162,0.03,-0.02,0.32,0.33
3.172,-0.02,-0.02,0.07,0.08
3.182,-0.04,-0.00,-0.14,0.15
3.192,-0.10,-0.04,-0.07,0.12
3.202,-0.12,-0.09,0.10,0.17
3.212,-0.07,-0.10,0.21,0.24
3.222,-0.10,-0.09,0.17,0.22
3.232,-0.18,-0.10,-0.05,0.21
3.242,-0.20,-0.09,-0.19,0.29
3.252,-0.25,-0.12,-0.10,0.30
3.262,-0.28,-0.16,0.05,0.33
3.272,-0.27,-0.16,0.06,0.32
3.282,-0.25,-0.13,0.01,0.28
3.292,-0.18,-0.11,-0.06,0.22
3.302,-0.13,-0.10,-0.04,0.17
3.312,-0.10,-0.05,0.01,0.11
3.322,-0.11,-0.03,0.06,0.13
3.332,-0.18,0.03,0.12,0.22
3.342,-0.25,0.09,0.13,0.29
3.352,-0.28,0.15,0.04,0.32
3.362,-0.31,0.18,0.07,0.36
3.372,-0.30,0.20,0.08,0.37
3.382,-0.24,0.23,0.02,0.34
3.392,-0.16,0.26,0.03,0.31
3.402,-0.14,0.26,0.07,0.30
3.413,-0.11,0.29,0.07,0.32
3.422,-0.03,0.26,0.11,0.28
3.432,0.04,0.21,0.09,0.24
3.443,0.12,0.16,0.04,0.20
3.453,0.17,0.06,-0.04,0.18
3.463,0.19,-0.06,-0.12,0.23
3.472,0.17,-0.14,-0.28,0.36
3.483,0.12,-0.22,-0.39,0.46
3.493,0.06,-0.26,-0.37,0.46
3.503,0.02,-0.31,-0.32,0.45
3.513,-0.08,-0.30,-0.30,0.43
3.522,-0.12,-0.28,-0.28,0.41
3.533,-0.16,-0.27,-0.22,0.38
3.543,-0.21,-0.23,-0.15,0.35
3.553,-0.15,-0.17,-0.14,0.27
3.563,-0.11,-0.16,-0.17,0.26
3.573,-0.00,-0.12,-0.15,0.19
3.583,0.05,-0.05,-0.13,0.15
3.593,0.07,-0.02,-0.08,0.11
3.603,0.08,-0.01,-0.02,0.08
3.613,0.03,0.03,0.04,0.06
3.623,-0.01,0.05,0.08,0.09
3.633,-0.01,0.07,0.08,0.10
3.643,-0.04,0.09,0.07,0.12
3.653,-0.11,0.13,0.07,0.19
3.663,-0.18,0.15,0.05,0.24
3.673,-0.24,0.15,-0.01,0.28
3.683,-0.29,0.13,-0.00,0.32
3.693,-0.30,0.11,0.01,0.32
3.703,-0.28,0.09,0.06,0.30
3.713,-0.22,0.08,0.02,0.23
3.723,-0.16,0.06,-0.03,0.17
3.733,-0.13,0.00,-0.07,0.15
3.743,-0.09,-0.05,-0.07,0.12
3.753,-0.10,-0.07,-0.07,0.15
3.763,-0.12,-0.09,-0.09,0.18
3.773,-0.10,-0.12,-0.09,0.18
3.783,-0.15,-0.11,-0.08,0.20
3.793,-0.17,-0.09,-0.11,0.22
3.803,-0.17,-0.08,-0.08,0.20
3.813,-0.14,-0.05,-0.01,0.15
3.823,-0.11,-0.03,0.01,0.12
3.833,-0.13,-0.01,0.03,0.13
3.843,-0.14,0.03,0.02,0.14
3.853,-0.15,0.01,-0.03,0.15
3.863,-0.20,0.02,-0.08,0.22
3.873,-0.11,0.05,-0.19,0.22
3.883,-0.08,0.07,-0.19,0.22
3.893,-0.14,0.07,-0.14,0.21
3.903,-0.11,0.08,-0.15,0.21
3.913,-0.11,0.12,-0.09,0.18
3.923,-0.14,0.12,0.04,0.19
3.933,-0.14,0.12,0.12,0.22
3.943,-0.10,0.13,0.12,0.20
3.953,-0.08,0.14,0.09,0.19
3.963,-0.05,0.12,0.04,0.13
3.973,-0.02,0.10,0.00,0.10
3.984,-0.01,0.09,-0.07,0.12
3.992,-0.05,0.07,-0.14,0.17
4.002,-0.10,0.06,-0.13,0.18
4.012,-0.15,0.05,-0.08,0.17
4.022,-0.12,0.04,0.01,0.13
4.032,-0.10,0.02,-0.00,0.10
4.042,-0.08,-0.00,-0.01,0.08
4.052,-0.12,-0.03,-0.00,0.12
4.062,-0.10,-0.03,0.01,0.11
4.072,-0.13,-0.05,0.05,0.15
4.082,-0.12,-0.07,0.06,0.15
4.092,-0.07,-0.06,0.03,0.10
4.102,-0.02,-0.08,0.05,0.09
4.112,-0.02,-0.08,0.04,0.10
4.122,-0.04,-0.08,0.00,0.09
4.132,-0.05,-0.07,0.00,0.09
4.142,-0.10,-0.05,-0.04,0.12
4.152,-0.15,-0.04,-0.03,0.16
4.162,-0.21,-0.05,0.07,0.23
4.172,-0.21,-0.07,0.12,0.25
4.182,-0.14,-0.05,0.05,0.16
4.192,-0.10,-0.06,-0.05,0.13
4.202,-0.06,-0.07,-0.07,0.11
4.212,-0.06,-0.05,-0.06,0.10
4.222,-0.07,-0.05,-0.03,0.09
4.232,-0.05,-0.07,0.05,0.10
4.242,0.02,-0.06,0.13,0.14
4.252,0.08,-0.07,0.13,0.17
4.262,0.09,-0.03,-0.07,0.11
4.272,0.04,-0.03,-0.32,0.33
4.282,-0.03,-0.03,-0.29,0.29
4.292,-0.12,-0.03,-0.05,0.13
4.302,-0.19,-0.04,0.16,0.25
4.312,-0.21,-0.01,0.32,0.38
4.322,-0.20,-0.00,0.36,0.41
4.332,-0.19,0.01,0.16,0.25
4.342,-0.19,0.06,-0.06,0.20
4.352,-0.20,0.07,-0.07,0.22
4.362,-0.21,0.04,0.07,0.22
4.372,-0.17,0.03,0.17,0.24
4.382,-0.14,0.05,0.14,0.21
4.392,-0.19,0.05,0.01,0.20
4.402,-0.17,0.03,-0.28,0.33
4.412,-0.11,0.05,-0.45,0.46
4.422,-0.10,0.01,-0.29,0.30
4.432,-0.11,-0.03,-0.06,0.13
4.442,-0.14,-0.02,0.08,0.17
4.452,-0.18,-0.01,0.07,0.20
4.462,-0.16,-0.03,-0.10,0.19
4.472,-0.04,0.01,-0.17,0.18
4.482,0.03,0.00,-0.10,0.11
4.492,0.06,-0.02,0.02,0.06
4.502,0.07,0.01,0.09,0.12
4.512,0.02,0.02,0.10,0.11
4.522,-0.01,0.04,0.07,0.08
4.532,-0.04,0.05,0.04,0.08
4.542,-0.10,0.07,-0.01,0.12
4.552,-0.17,0.09,-0.06,0.20
4.562,-0.23,0.07,-0.09,0.26
4.572,-0.27,0.08,-0.06,0.29
4.582,-0.24,0.10,-0.08,0.27
4.592,-0.20,0.10,-0.16,0.28
4.602,-0.19,0.08,-0.16,0.27
4.612,-0.19,0.03,-0.12,0.23
4.622,-0.22,0.03,-0.08,0.23
4.632,-0.22,0.01,-0.08,0.24
4.642,-0.20,-0.00,-0.05,0.20
4.652,-0.20,-0.00,-0.10,0.22
4.662,-0.17,-0.00,-0.21,0.27
4.672,-0.11,0.01,-0.13,0.16
4.682,-0.06,-0.06,0.07,0.11
4.692,0.00,-0.10,0.16,0.18
4.702,0.03,-0.07,0.09,0.11
4.712,0.03,-0.02,-0.05,0.06
4.722,0.01,-0.03,-0.15,0.16
4.732,-0.01,-0.01,-0.16,0.16
4.742,-0.05,-0.00,-0.06,0.08
4.752,-0.11,-0.00,0.06,0.12
4.762,-0.17,0.00,0.17,0.24
4.772,-0.16,-0.02,0.15,0.22
4.782,-0.18,0.02,0.04,0.18
4.792,-0.19,0.01,-0.01,0.20
4.802,-0.23,-0.00,-0.02,0.23
4.812,-0.18,-0.00,-0.05,0.19
4.822,-0.22,-0.02,-0.09,0.24
4.832,-0.20,-0.01,-0.05,0.21
4.842,-0.19,-0.02,0.02,0.19
4.852,-0.17,-0.03,0.05,0.18
4.862,-0.10,-0.03,0.05,0.12
4.872,-0.07,-0.04,0.01,0.08
4.882,-0.04,-0.04,-0.06,0.08
4.893,-0.03,-0.02,-0.10,0.10
4.903,-0.04,-0.03,-0.12,0.13
4.912,-0.03,-0.04,-0.07,0.09
4.922,0.03,-0.04,-0.03,0.06
4.932,0.05,-0.04,0.05,0.08
4.942,-0.00,-0.04,0.08,0.09
4.952,-0.05,-0.02,0.03,0.06
4.962,-0.14,-0.01,0.00,0.14
4.972,-0.20,-0.00,-0.06,0.21
4.982,-0.20,0.01,-0.06,0.21
4.992,-0.18,0.01,-0.01,0.18
5.002,-0.13,0.01,0.08,0.15
5.012,-0.06,0.01,0.11,0.13
5.022,-0.04,0.02,0.08,0.09
5.032,-0.03,0.01,0.06,0.07
5.042,-0.00,0.00,0.11,0.11
5.052,-0.05,0.00,0.06,0.08
5.062,-0.08,-0.00,-0.02,0.09
5.072,-0.13,0.00,-0.10,0.16
5.082,-0.15,-0.02,-0.11,0.18
5.093,-0.15,-0.01,-0.13,0.20
5.102,-0.19,-0.02,-0.18,0.26
5.112,-0.22,-0.03,-0.17,0.28
5.123,-0.22,-0.01,-0.08,0.24
5.132,-0.19,-0.00,-0.03,0.20
5.142,-0.19,0.01,-0.04,0.19
5.152,-0.17,0.04,-0.03,0.18
5.163,-0.12,0.03,-0.02,0.12
5.172,-0.09,0.04,-0.05,0.11
5.183,-0.10,0.03,-0.08,0.13
5.192,-0.09,0.01,-0.14,0.17
5.202,-0.09,0.00,-0.17,0.19
5.213,-0.10,-0.00,-0.13,0.16
5.222,-0.15,-0.03,-0.05,0.16
5.233,-0.10,0.00,0.00,0.10
5.243,-0.08,0.00,0.02,0.08
5.253,-0.08,-0.03,0.02,0.09
5.263,0.00,0.01,-0.05,0.05
5.273,-0.03,0.01,-0.13,0.13
5.282,-0.04,-0.02,-0.16,0.17
5.293,-0.06,-0.04,-0.14,0.16
5.303,-0.12,-0.03,-0.08,0.15
5.313,-0.17,-0.02,-0.04,0.17
5.323,-0.17,-0.03,-0.01,0.17
5.333,-0.14,-0.01,-0.02,0.14
5.343,-0.16,-0.01,-0.04,0.16
5.353,-0.16,-0.01,-0.07,0.18
5.363,-0.15,-0.01,-0.05,0.16
5.373,-0.15,-0.01,-0.02,0.15
5.383,-0.13,-0.01,0.03,0.14
5.393,-0.12,-0.01,0.04,0.13
5.403,-0.16,0.01,0.05,0.17
5.413,-0.15,-0.00,0.05,0.16
5.423,-0.14,-0.01,0.02,0.14
5.433,-0.13,-0.02,-0.04,0.13
5.443,-0.10,-0.00,-0.13,0.16
5.459,-0.07,0.00,-0.17,0.18
5.463,-0.08,0.00,-0.16,0.18
5.473,-0.06,0.00,-0.11,0.12
5.483,-0.07,-0.02,-0.03,0.08
5.493,-0.05,0.01,0.05,0.07
5.503,-0.03,0.02,0.08,0.09
5.513,-0.04,0.02,0.07,0.08
5.523,-0.04,0.02,0.05,0.07
5.533,-0.03,0.03,0.03,0.05
5.543,-0.09,0.04,0.04,0.11
5.553,-0.10,0.03,0.03,0.11
5.563,-0.12,0.05,-0.00,0.13
5.573,-0.13,0.06,-0.02,0.15
5.583,-0.15,0.04,-0.01,0.16
5.593,-0.16,0.03,-0.03,0.17
5.603,-0.17,0.04,-0.01,0.17
5.613,-0.14,0.05,0.03,0.15
5.623,-0.13,0.02,0.12,0.18
5.633,-0.14,0.02,0.11,0.18
5.643,-0.18,0.02,0.07,0.20
5.653,-0.17,-0.01,0.07,0.18
5.663,-0.11,-0.02,0.04,0.12
5.673,-0.06,-0.05,0.01,0.08
5.683,-0.07,-0.06,-0.01,0.09
5.693,-0.08,-0.04,-0.04,0.10
5.703,-0.09,-0.04,-0.06,0.11
5.713,-0.07,-0.04,-0.03,0.08
5.723,-0.06,-0.04,0.05,0.09
5.733,-0.02,-0.05,-0.00,0.05
5.743,-0.07,-0.02,-0.07,0.10
5.753,-0.09,-0.01,-0.09,0.13
5.763,-0.15,-0.02,-0.08,0.17
5.773,-0.14,-0.01,-0.07,0.16
5.783,-0.13,0.00,-0.01,0.13
5.793,-0.11,0.00,0.05,0.12
5.803,-0.08,-0.01,0.08,0.12
5.813,-0.09,-0.00,0.05,0.10
5.823,-0.10,0.01,-0.03,0.10
5.833,-0.13,0.01,-0.04,0.14
5.843,-0.17,0.03,-0.01,0.17
5.853,-0.11,0.05,0.01,0.12
5.863,-0.06,0.03,-0.04,0.08
5.873,-0.05,0.02,-0.09,0.11
5.883,-0.05,0.03,-0.11,0.13
5.893,-0.06,0.01,-0.08,0.10
5.903,-0.11,0.00,-0.06,0.12
5.913,-0.18,-0.01,-0.06,0.19
5.923,-0.20,0.01,-0.06,0.21
5.933,-0.24,0.02,-0.03,0.25
5.943,-0.22,0.01,-0.04,0.22
5.953,-0.22,-0.01,-0.04,0.22
5.963,-0.19,0.02,-0.03,0.19
5.973,-0.12,0.01,0.02,0.12
5.983,-0.03,-0.00,0.03,0.04
5.993,-0.02,-0.02,-0.06,0.07
6.003,-0.05,-0.01,-0.13,0.14
6.013,-0.03,-0.02,-0.11,0.12
6.023,-0.05,-0.03,-0.05,0.08
6.033,-0.10,-0.04,-0.05,0.11
6.043,-0.07,-0.06,-0.01,0.09
6.053,-0.11,-0.05,-0.02,0.12
6.063,-0.10,-0.04,-0.07,0.13
6.073,-0.08,-0.05,-0.09,0.14
6.083,-0.07,-0.03,-0.06,0.09
6.093,-0.08,-0.01,-0.03,0.08
6.103,-0.11,-0.01,-0.02,0.11
6.113,-0.11,-0.01,-0.08,0.14
6.123,-0.12,-0.01,-0.11,0.16
6.133,-0.16,-0.00,-0.14,0.21
6.143,-0.15,-0.01,-0.10,0.18
6.153,-0.17,-0.01,-0.04,0.17
6.163,-0.17,-0.00,-0.02,0.18
6.173,-0.21,-0.00,-0.05,0.21
6.183,-0.18,0.02,-0.05,0.19
6.193,-0.12,0.02,-0.04,0.13
6.203,-0.08,0.01,-0.06,0.10
6.213,-0.09,0.00,-0.15,0.17
6.223,-0.08,-0.01,-0.18,0.20
6.233,-0.08,-0.01,-0.16,0.18
6.243,-0.14,-0.02,-0.10,0.17
6.253,-0.13,-0.02,-0.06,0.15
6.263,-0.14,0.01,-0.02,0.14
6.273,-0.13,0.02,0.01,0.14
6.283,-0.10,0.02,0.04,0.11
6.293,-0.10,0.04,0.04,0.12
6.303,-0.06,0.04,0.07,0.10
6.313,-0.06,0.02,0.09,0.11
6.323,-0.06,0.03,0.04,0.08
6.333,-0.06,0.01,-0.06,0.09
6.343,-0.03,0.03,-0.07,0.08
6.353,0.00,0.01,-0.06,0.06
6.363,0.02,-0.00,0.00,0.02
6.373,0.01,0.01,0.06,0.06
6.383,-0.06,-0.00,0.06,0.09
6.393,-0.12,0.00,0.10,0.16
6.403,-0.20,0.02,0.13,0.24
6.413,-0.21,0.00,0.13,0.24
6.423,-0.22,-0.00,0.17,0.28
6.433,-0.11,-0.03,0.06,0.13
6.443,-0.08,-0.01,0.03,0.09
6.453,-0.12,-0.01,0.13,0.18
6.464,-0.07,-0.01,0.05,0.09
6.473,-0.11,-0.01,0.05,0.12
6.483,-0.13,-0.02,0.10,0.16
6.493,-0.13,-0.04,0.08,0.16
6.503,-0.15,-0.03,0.07,0.17
6.513,-0.15,-0.01,0.08,0.17
6.523,-0.15,-0.01,0.09,0.18
6.533,-0.21,0.02,0.05,0.21
6.544,-0.24,0.05,0.02,0.24
6.553,-0.22,0.06,0.03,0.23
6.564,-0.24,0.07,0.02,0.25
6.573,-0.21,0.07,-0.00,0.23
6.584,-0.18,0.09,-0.03,0.21
6.594,-0.15,0.09,-0.04,0.18
6.604,-0.07,0.08,-0.01,0.11
6.613,0.02,0.07,-0.03,0.08
6.624,0.05,0.04,-0.14,0.15
6.634,0.08,0.05,-0.17,0.20
6.644,-0.00,0.05,-0.19,0.19
6.653,-0.05,-0.00,-0.17,0.18
6.664,-0.02,-0.00,-0.15,0.15
6.674,-0.01,-0.01,-0.08,0.08
6.684,-0.09,-0.05,-0.12,0.16
6.694,-0.13,-0.04,-0.11,0.18
6.704,-0.15,-0.04,-0.11,0.19
6.714,-0.21,-0.03,-0.17,0.27
6.724,-0.18,-0.03,-0.19,0.26
6.734,-0.16,-0.03,-0.15,0.22
6.744,-0.15,-0.03,-0.11,0.19
6.754,-0.15,0.00,-0.16,0.22
6.764,-0.15,0.02,-0.17,0.23
6.774,-0.16,0.02,-0.06,0.18
6.784,-0.18,-0.01,0.03,0.18
6.794,-0.18,-0.01,0.07,0.20
6.804,-0.18,-0.00,0.02,0.18
6.814,-0.13,-0.01,-0.03,0.14
6.824,-0.11,-0.02,-0.07,0.14
6.834,-0.09,-0.02,-0.09,0.13
6.844,-0.07,-0.03,-0.07,0.11
6.854,-0.07,-0.03,-0.07,0.11
6.864,-0.09,-0.04,-0.08,0.13
6.874,-0.10,-0.04,-0.11,0.16
6.884,-0.14,-0.04,-0.07,0.16
6.894,-0.16,-0.02,-0.03,0.16
6.904,-0.15,-0.01,0.03,0.15
6.914,-0.11,-0.00,0.08,0.14
6.924,-0.08,0.01,0.11,0.13
6.934,-0.03,0.03,0.06,0.08
6.944,-0.01,0.05,0.04,0.07
6.954,-0.05,0.07,0.04,0.10
6.964,-0.09,0.05,0.04,0.11
6.974,-0.13,0.04,0.01,0.13
6.984,-0.17,0.06,0.01,0.18
6.994,-0.16,0.02,-0.01,0.16
7.004,-0.12,0.02,-0.00,0.12
7.014,-0.11,0.02,-0.01,0.11
7.024,-0.09,0.02,-0.01,0.09
7.034,-0.08,0.01,-0.01,0.08
7.044,-0.11,0.02,0.02,0.11
7.054,-0.14,0.03,0.04,0.15
7.064,-0.14,0.01,0.03,0.14
7.074,-0.13,0.01,0.04,0.14
7.084,-0.14,-0.01,0.03,0.15
7.094,-0.15,-0.01,0.02,0.15
7.104,-0.11,-0.00,-0.01,0.11
7.114,-0.13,0.00,-0.00,0.13
7.124,-0.07,0.00,0.03,0.07
7.134,-0.04,-0.01,0.07,0.08
7.144,-0.05,-0.05,0.02,0.07
7.154,-0.11,-0.03,-0.04,0.12
7.164,-0.15,-0.02,-0.04,0.16
7.174,-0.17,-0.03,-0.04,0.18
7.184,-0.18,-0.01,-0.05,0.19
7.194,-0.18,-0.01,-0.06,0.19
7.204,-0.17,-0.03,-0.03,0.18
7.214,-0.11,-0.03,0.04,0.13
7.224,-0.07,-0.03,0.03,0.08
7.234,-0.06,-0.06,-0.03,0.09
7.244,-0.07,-0.05,-0.04,0.09
7.254,-0.09,-0.04,-0.02,0.10
7.264,-0.13,-0.06,-0.07,0.16
7.274,-0.11,-0.03,-0.11,0.16
7.284,-0.13,-0.02,-0.08,0.15
7.294,-0.10,-0.04,-0.02,0.11
7.304,-0.07,-0.04,-0.04,0.09
7.314,-0.10,-0.02,-0.03,0.11
7.324,-0.15,-0.01,0.04,0.15
7.334,-0.09,-0.00,0.05,0.10
7.344,-0.17,0.02,0.03,0.18
7.354,-0.15,0.02,0.03,0.16
7.364,-0.13,0.05,-0.01,0.14
7.374,-0.12,0.04,0.00,0.13
7.384,-0.13,0.03,-0.01,0.14
7.394,-0.11,0.04,-0.02,0.12
7.404,-0.11,0.04,0.02,0.12
7.414,-0.11,0.05,0.04,0.13
7.424,-0.10,0.07,-0.03,0.13
7.434,-0.09,0.06,-0.02,0.11
7.444,-0.11,0.05,-0.00,0.12
7.454,-0.12,0.06,0.02,0.13
7.464,-0.16,0.04,0.05,0.17
7.474,-0.16,0.02,0.06,0.17
7.484,-0.09,0.05,0.03,0.11
7.494,-0.08,0.05,-0.02,0.09
7.504,-0.06,0.06,-0.06,0.11
7.514,-0.04,0.04,-0.13,0.14
7.524,-0.01,0.03,-0.16,0.16
7.534,-0.01,0.00,-0.07,0.08
7.544,-0.03,-0.00,-0.01,0.04
7.554,-0.07,0.01,0.01,0.07
7.564,-0.12,-0.01,0.02,0.12
7.574,-0.17,-0.02,0.01,0.17
7.584,-0.20,-0.00,-0.00,0.20
7.594,-0.18,0.00,-0.03,0.18
7.604,-0.16,-0.00,-0.05,0.17
7.614,-0.15,-0.00,-0.01,0.15
7.624,-0.13,-0.02,0.03,0.14
7.634,-0.14,-0.02,0.01,0.14
7.644,-0.13,-0.03,-0.00,0.13
7.654,-0.11,-0.03,0.01,0.11
7.664,-0.13,-0.04,0.01,0.13
7.674,-0.10,-0.01,-0.00,0.10
7.684,-0.08,-0.01,-0.01,0.08
7.694,-0.09,0.01,0.00,0.09
7.704,-0.08,-0.00,0.02,0.09
7.714,-0.09,0.01,0.05,0.11
7.724,-0.09,0.01,0.05,0.11
7.734,-0.12,0.01,0.07,0.14
7.744,-0.13,0.01,0.08,0.15
7.754,-0.13,0.01,0.06,0.14
7.764,-0.10,-0.00,0.02,0.10
7.774,-0.06,-0.01,0.04,0.07
7.784,-0.08,-0.02,0.03,0.09
7.794,-0.13,-0.03,-0.05,0.14
7.804,-0.15,-0.04,-0.10,0.19
7.814,-0.14,-0.03,-0.12,0.18
7.824,-0.11,-0.04,-0.10,0.15
7.834,-0.13,-0.07,-0.05,0.15
7.844,-0.09,-0.04,-0.02,0.10
7.854,-0.10,-0.03,-0.02,0.11
7.865,-0.10,-0.02,-0.01,0.10
7.874,-0.08,-0.01,-0.01,0.08
7.884,-0.09,-0.00,-0.02,0.09
7.895,-0.08,0.02,-0.03,0.09
7.905,-0.08,-0.02,-0.02,0.08
7.914,-0.11,-0.01,0.01,0.11
7.925,-0.11,-0.02,0.02,0.11
7.934,-0.15,0.01,-0.04,0.15
7.945,-0.13,0.01,-0.07,0.15
7.955,-0.11,-0.03,-0.08,0.14
7.965,-0.10,-0.02,-0.06,0.12
7.974,-0.13,-0.04,-0.05,0.15
7.985,-0.11,-0.04,-0.06,0.13
7.995,-0.13,-0.03,-0.10,0.17
8.005,-0.15,-0.01,-0.17,0.23
8.015,-0.18,-0.01,-0.21,0.28
8.025,-0.19,0.00,-0.19,0.27
8.035,-0.20,0.00,-0.08,0.22
8.045,-0.19,0.01,0.02,0.19
8.055,-0.21,0.01,0.04,0.21
8.065,-0.19,-0.01,0.04,0.20
8.075,-0.16,-0.01,0.03,0.16
8.085,-0.10,0.00,0.01,0.10
8.095,-0.07,-0.02,0.01,0.07
8.105,-0.03,-0.04,-0.05,0.07
8.115,0.01,-0.05,-0.11,0.12
8.125,0.04,-0.06,-0.10,0.12
8.135,0.06,-0.06,-0.06,0.11
8.145,0.02,-0.07,-0.04,0.08
8.155,-0.01,-0.07,-0.01,0.07
8.165,-0.08,-0.05,0.00,0.09
8.175,-0.13,-0.03,0.01,0.13
8.185,-0.18,-0.03,-0.07,0.19
8.195,-0.18,0.01,-0.17,0.25
8.205,-0.19,0.02,-0.19,0.27
8.215,-0.18,0.02,-0.19,0.26
8.225,-0.13,0.02,-0.17,0.22
8.235,-0.09,0.05,-0.10,0.14
8.245,-0.05,0.04,-0.06,0.09
8.255,-0.04,0.06,0.13,0.14
8.265,0.00,0.00,0.04,0.04
8.275,0.03,0.10,-0.03,0.11
8.285,-0.01,0.09,0.02,0.09
8.295,-0.04,0.08,0.02,0.09
8.305,-0.04,0.09,-0.01,0.10
8.315,-0.05,0.09,0.02,0.11
8.325,-0.05,0.07,0.04,0.09
8.335,-0.03,0.07,0.05,0.09
8.345,-0.08,0.09,0.06,0.13
8.355,-0.12,0.05,0.10,0.16
8.365,-0.14,0.01,0.07,0.16
8.375,-0.22,0.01,-0.06,0.23
8.385,-0.26,0.04,-0.09,0.27
8.395,-0.18,0.00,-0.02,0.18
8.405,-0.16,0.01,0.04,0.16
8.415,-0.14,0.01,0.05,0.15
8.425,-0.15,0.01,0.04,0.15
8.435,-0.18,0.04,0.01,0.19
8.445,-0.02,0.01,-0.01,0.03
8.455,-0.18,0.02,0.06,0.19
8.465,-0.17,-0.03,0.12,0.21
8.475,-0.18,-0.02,0.07,0.20
8.485,-0.22,0.00,0.02,0.22
8.495,-0.19,-0.03,0.03,0.20
8.505,-0.18,-0.01,-0.01,0.18
8.515,-0.18,0.01,-0.04,0.18
8.525,-0.18,-0.00,-0.02,0.18
8.535,-0.08,-0.01,0.06,0.10
8.545,-0.08,0.01,0.09,0.12
8.555,-0.10,0.02,0.09,0.13
8.565,-0.07,0.01,0.05,0.09
8.575,-0.07,0.03,0.09,0.12
8.585,-0.08,0.00,0.12,0.14
8.595,-0.08,0.02,0.05,0.10
8.605,-0.02,0.03,-0.04,0.06
8.615,0.03,0.01,-0.06,0.07
8.625,0.03,0.00,-0.05,0.06
8.635,0.04,-0.01,-0.05,0.07
8.645,-0.04,-0.01,-0.06,0.07
8.655,-0.10,-0.01,-0.01,0.10
8.665,-0.16,-0.02,0.01,0.16
8.675,-0.19,-0.03,-0.01,0.19
8.685,-0.19,-0.02,-0.05,0.20
8.695,-0.21,-0.02,-0.09,0.23
8.705,-0.21,-0.02,-0.08,0.22
8.715,-0.20,-0.02,-0.07,0.21
8.725,-0.20,-0.01,-0.05,0.21
8.735,-0.21,-0.02,-0.02,0.21
8.745,-0.18,-0.03,0.00,0.19
8.755,-0.18,-0.06,0.04,0.20
8.765,-0.20,-0.06,-0.01,0.21
8.775,-0.16,-0.04,-0.09,0.19
8.785,-0.13,-0.04,-0.14,0.20
8.795,-0.13,-0.04,-0.16,0.21
8.805,-0.15,-0.04,-0.14,0.21
8.815,-0.15,-0.06,-0.06,0.17
8.825,-0.12,-0.04,-0.01,0.13
8.835,-0.14,-0.04,0.05,0.15
8.845,-0.14,-0.03,0.15,0.20
8.855,-0.13,-0.03,0.17,0.22
8.865,-0.11,-0.03,0.10,0.15
8.875,-0.08,-0.01,0.08,0.11
8.885,-0.03,-0.03,0.08,0.09
8.895,-0.03,-0.03,0.05,0.06
8.905,0.01,0.00,-0.01,0.01
8.915,-0.01,-0.01,-0.04,0.04
8.925,-0.01,-0.04,-0.03,0.05
8.935,-0.05,-0.02,0.02,0.06
8.945,-0.11,-0.01,0.06,0.13
8.955,-0.19,0.00,0.06,0.20
8.965,-0.20,0.01,0.06,0.21
8.975,-0.21,0.02,0.04,0.22
8.985,-0.23,0.01,0.04,0.23
8.995,-0.20,0.03,0.07,0.21
9.005,-0.18,0.01,0.08,0.20
9.015,-0.12,0.02,0.07,0.14
9.025,-0.08,0.04,0.01,0.09
9.035,-0.04,0.04,-0.01,0.05
9.045,-0.02,0.04,0.03,0.05
9.055,-0.07,0.02,0.04,0.09
9.065,-0.07,0.04,-0.05,0.09
9.075,-0.06,0.07,-0.13,0.16
9.085,-0.05,0.05,-0.15,0.17
9.095,-0.05,0.05,-0.12,0.14
9.105,-0.04,0.03,-0.05,0.07
9.115,-0.07,0.02,-0.03,0.08
9.125,-0.12,0.07,-0.03,0.14
9.135,-0.17,0.04,-0.11,0.20
9.145,-0.16,0.03,-0.13,0.20
9.155,-0.16,0.03,-0.06,0.17
9.165,-0.14,0.03,-0.01,0.14
9.175,-0.15,0.03,-0.03,0.15
9.185,-0.13,0.02,-0.00,0.13
9.195,-0.10,-0.00,0.00,0.10
9.205,-0.08,0.01,0.02,0.09
9.215,-0.08,0.00,0.03,0.08
9.225,-0.09,-0.03,0.02,0.09
9.235,-0.12,-0.02,-0.02,0.13
9.245,-0.17,-0.03,0.01,0.17
9.255,-0.21,-0.04,0.00,0.22
9.265,-0.21,-0.04,0.02,0.22
9.275,-0.19,-0.07,0.04,0.21
9.285,-0.18,-0.05,0.10,0.21
9.296,-0.14,-0.06,0.08,0.17
9.306,-0.14,-0.06,0.05,0.16
9.315,-0.10,-0.04,0.05,0.12
9.326,-0.06,-0.03,0.03,0.08
9.335,-0.07,-0.03,0.02,0.08
9.346,-0.10,-0.02,-0.03,0.10
9.356,-0.08,-0.00,-0.14,0.16
9.366,-0.08,-0.01,-0.14,0.16
9.375,-0.07,0.01,-0.11,0.14
9.386,-0.08,0.02,-0.13,0.16
9.396,-0.11,0.03,-0.10,0.15
9.406,-0.13,0.02,-0.03,0.14
9.416,-0.09,0.02,-0.01,0.09
9.426,-0.12,0.04,-0.03,0.13
9.436,-0.10,0.01,-0.03,0.10
9.446,-0.08,-0.00,-0.01,0.08
9.456,-0.10,0.01,-0.00,0.10
9.466,-0.10,0.01,-0.02,0.11
9.476,-0.09,0.01,-0.02,0.09
9.486,-0.08,0.03,-0.02,0.08
9.496,-0.09,0.01,0.04,0.10
9.506,-0.08,0.01,0.04,0.08
9.516,-0.08,0.04,-0.01,0.09
9.526,-0.09,0.03,-0.05,0.11
9.536,-0.15,0.04,-0.04,0.16
9.546,-0.21,0.03,0.01,0.21
9.556,-0.23,0.01,0.02,0.23
9.566,-0.23,-0.01,0.04,0.23
9.576,-0.19,-0.01,0.05,0.19
9.586,-0.18,-0.02,0.01,0.18
9.596,-0.18,-0.02,0.02,0.18
9.606,-0.18,-0.02,0.03,0.18
9.616,-0.16,-0.03,0.03,0.17
9.626,-0.13,-0.06,0.06,0.16
9.636,-0.11,-0.07,0.02,0.13
9.646,-0.11,-0.07,-0.05,0.14
9.656,-0.05,-0.07,-0.12,0.15
9.666,-0.03,-0.06,-0.16,0.18
9.676,-0.07,-0.03,-0.12,0.14
9.686,-0.03,-0.06,-0.04,0.08
9.696,-0.07,-0.05,-0.00,0.08
9.706,-0.08,-0.05,-0.03,0.10
9.716,-0.07,-0.04,-0.05,0.10
9.726,-0.10,-0.02,-0.09,0.13
9.736,-0.15,-0.00,-0.10,0.17
9.746,-0.13,0.01,-0.03,0.14
9.756,-0.16,0.02,0.05,0.16
9.766,-0.15,0.04,0.09,0.18
9.776,-0.08,0.05,0.09,0.13
9.786,-0.06,0.05,0.06,0.10
9.796,-0.02,0.04,0.12,0.13
9.806,-0.02,0.04,0.12,0.13
9.816,-0.02,0.06,0.07,0.09
9.826,-0.00,0.04,0.06,0.07
9.836,0.01,0.02,0.04,0.05
9.846,-0.03,0.04,0.01,0.05
9.856,-0.07,0.03,0.00,0.08
9.866,-0.12,0.03,-0.04,0.13
9.876,-0.14,0.04,-0.04,0.15
9.886,-0.15,0.01,-0.01,0.15
9.896,-0.16,-0.00,0.03,0.16
9.906,-0.19,-0.01,0.06,0.20
9.916,-0.22,0.00,0.07,0.23
9.926,-0.21,-0.02,0.04,0.21
9.936,-0.19,-0.01,-0.01,0.20
9.946,-0.18,0.01,-0.08,0.20
9.956,-0.13,-0.00,-0.15,0.19
9.966,-0.07,0.01,-0.21,0.23
9.976,-0.05,0.02,-0.23,0.23
9.986,-0.05,0.02,-0.14,0.16
9.996,-0.09,0.01,-0.09,0.13
10.006,-0.12,0.01,-0.05,0.13
10.016,-0.16,0.02,0.01,0.17
10.026,-0.22,0.03,0.05,0.23
10.036,-0.20,0.00,0.05,0.21
10.046,-0.15,-0.00,0.03,0.16
10.056,-0.12,-0.01,-0.01,0.12
10.066,-0.03,-0.03,-0.07,0.09
10.076,0.02,-0.02,-0.15,0.15
10.086,0.05,-0.02,-0.16,0.17
10.096,0.03,-0.02,-0.13,0.14
10.106,-0.04,-0.03,-0.04,0.06
10.116,-0.11,-0.04,0.02,0.12
10.126,-0.13,-0.01,0.00,0.13
10.136,-0.18,0.01,-0.01,0.18
10.146,-0.20,0.02,0.01,0.20
10.156,-0.21,0.01,0.02,0.21
10.166,-0.21,-0.00,0.03,0.21
10.176,-0.15,-0.01,0.03,0.15
10.186,-0.12,-0.03,0.03,0.13
10.196,-0.11,-0.03,0.01,0.12
10.206,-0.12,-0.02,-0.02,0.12
10.216,-0.14,-0.01,-0.07,0.15
10.226,-0.17,-0.03,-0.07,0.19
10.236,-0.19,-0.03,-0.01,0.20
10.246,-0.25,-0.02,0.01,0.25
10.256,-0.27,0.00,0.05,0.27
10.266,-0.23,0.01,0.05,0.23
10.276,-0.19,0.01,0.05,0.19
10.286,-0.14,0.01,0.03,0.14
10.296,-0.06,0.02,0.01,0.06
10.306,-0.02,0.01,0.01,0.03
10.316,0.00,0.01,-0.01,0.01
10.326,0.02,-0.00,-0.03,0.03
10.336,0.01,-0.00,-0.03,0.03
10.346,0.01,0.01,-0.10,0.11
10.356,-0.04,0.04,-0.06,0.08
10.366,-0.05,0.03,-0.02,0.06
10.376,-0.06,0.05,-0.01,0.08
10.386,-0.07,0.04,0.05,0.10
10.396,-0.07,0.04,0.07,0.10
10.406,-0.06,0.04,0.04,0.08
10.416,-0.05,0.03,0.02,0.06
10.426,-0.07,0.02,-0.00,0.08
10.436,-0.14,0.01,-0.02,0.14
10.446,-0.16,0.00,-0.06,0.17
10.456,-0.18,-0.03,-0.07,0.19
10.466,-0.16,-0.02,-0.08,0.18
10.476,-0.14,-0.03,-0.06,0.15
10.486,-0.12,-0.03,-0.03,0.13
10.496,-0.11,-0.03,-0.04,0.12
10.506,-0.10,-0.00,-0.01,0.10
10.516,-0.11,0.00,-0.00,0.11
10.526,-0.14,-0.01,0.01,0.14
10.536,-0.15,-0.01,0.00,0.15
10.546,-0.16,0.01,-0.01,0.16
10.556,-0.13,0.00,-0.05,0.14
10.566,-0.11,0.02,-0.06,0.13
10.576,-0.11,0.03,-0.09,0.15
10.586,-0.09,0.02,-0.08,0.12
10.596,-0.10,0.01,-0.03,0.10
10.607,-0.07,-0.01,-0.00,0.07
10.617,-0.10,-0.03,-0.01,0.11
10.627,-0.10,-0.01,0.02,0.11
10.636,-0.11,0.01,0.00,0.11
10.646,-0.12,0.00,0.02,0.12
10.657,-0.10,0.00,0.02,0.10
10.666,-0.10,-0.04,0.04,0.11
10.677,-0.08,-0.04,0.02,0.09
10.687,-0.09,-0.03,-0.04,0.10
10.696,-0.12,-0.05,-0.07,0.15
10.707,-0.12,-0.02,-0.11,0.17
10.716,-0.16,-0.03,-0.12,0.20
10.726,-0.16,0.00,-0.10,0.19
10.737,-0.14,0.01,-0.09,0.16
10.747,-0.12,0.01,-0.04,0.13
10.757,-0.13,0.03,0.01,0.14
10.767,-0.14,0.03,0.02,0.15
10.776,-0.17,0.03,0.03,0.17
10.787,-0.21,0.04,0.04,0.22
10.797,-0.19,0.04,0.05,0.20
10.807,-0.17,0.02,0.06,0.18
10.817,-0.16,0.02,0.04,0.17
10.827,-0.14,0.01,0.03,0.14
10.837,-0.13,0.00,0.06,0.14
10.847,-0.12,0.01,0.06,0.14
10.857,-0.12,0.02,0.06,0.14
10.867,-0.15,0.01,0.08,0.17
10.877,-0.15,-0.00,0.07,0.17
10.887,-0.11,0.02,0.04,0.12
10.897,-0.08,0.03,0.00,0.08
10.907,-0.03,0.01,-0.03,0.05
10.917,-0.01,0.01,-0.03,0.03
10.927,-0.00,0.03,0.03,0.04
10.937,-0.02,0.01,0.02,0.03
10.947,-0.02,-0.00,0.06,0.06
10.957,-0.06,-0.02,0.05,0.08
10.967,-0.08,-0.04,-0.00,0.09
10.977,-0.08,-0.02,-0.07,0.11
10.987,-0.04,-0.02,-0.16,0.17
10.997,-0.07,-0.02,-0.16,0.17
11.007,-0.10,-0.03,-0.12,0.16
11.017,-0.11,-0.05,-0.04,0.13
11.027,-0.15,-0.06,0.01,0.16
11.037,-0.18,-0.05,0.02,0.19
11.047,-0.22,-0.04,0.00,0.22
11.057,-0.21,-0.03,0.01,0.21
11.067,-0.20,-0.00,0.02,0.20
11.077,-0.18,-0.04,-0.01,0.18
11.087,-0.13,-0.01,-0.02,0.13
11.097,-0.11,-0.01,-0.04,0.12
11.107,-0.08,0.00,-0.01,0.08
11.117,-0.08,0.01,-0.02,0.08
11.127,-0.09,0.01,-0.02,0.10
11.137,-0.09,0.01,0.02,0.09
11.147,-0.09,0.03,0.01,0.10
11.157,-0.10,0.04,0.01,0.11
11.167,-0.11,0.03,0.01,0.12
11.177,-0.13,0.02,0.03,0.13
11.187,-0.15,0.02,0.01,0.15
11.197,-0.15,0.02,0.01,0.15
11.207,-0.13,0.03,-0.02,0.13
11.217,-0.08,0.02,-0.00,0.08
11.227,-0.04,0.02,-0.06,0.07
11.237,-0.06,0.00,-0.09,0.11
11.247,0.01,0.02,-0.08,0.08
11.257,0.01,-0.00,-0.10,0.10
11.267,0.00,0.00,-0.09,0.09
11.277,-0.03,0.01,-0.04,0.05
11.287,-0.09,0.01,-0.01,0.09
11.297,-0.13,-0.01,-0.03,0.13
11.307,-0.16,-0.00,-0.04,0.17
11.317,-0.16,-0.00,-0.08,0.18
11.327,-0.16,0.00,-0.07,0.18
11.337,-0.17,0.00,-0.02,0.18
11.347,-0.18,-0.01,0.04,0.18
11.357,-0.18,-0.02,0.05,0.19
11.367,-0.17,0.01,0.00,0.17
11.377,-0.19,0.00,-0.03,0.19
11.387,-0.16,0.01,-0.03,0.16
11.397,-0.14,-0.01,-0.03,0.15
11.407,-0.16,-0.01,-0.05,0.16
11.417,-0.14,-0.02,-0.04,0.15
11.427,-0.13,-0.01,-0.03,0.13
11.437,-0.15,0.01,-0.02,0.15
11.447,-0.19,0.03,0.00,0.20
11.457,-0.20,0.03,0.00,0.20
11.467,-0.20,0.03,-0.02,0.20
11.477,-0.17,0.02,-0.02,0.17
11.487,-0.15,0.00,-0.03,0.15
11.497,-0.14,-0.02,0.00,0.14
11.507,-0.09,-0.05,0.01,0.10
11.517,-0.07,-0.04,-0.00,0.08
11.527,-0.08,-0.04,-0.06,0.11
11.537,-0.06,-0.05,-0.09,0.13
11.547,-0.04,-0.03,-0.11,0.12
11.557,-0.04,-0.02,-0.13,0.14
11.567,-0.04,-0.03,-0.07,0.09
11.577,-0.03,-0.04,-0.03,0.06
11.587,-0.05,-0.01,-0.02,0.06
11.597,-0.07,-0.01,-0.02,0.08
11.607,-0.08,-0.00,0.07,0.11
11.617,-0.10,-0.02,0.12,0.16
11.627,-0.15,-0.01,0.06,0.16
11.637,-0.13,0.02,0.02,0.13
11.647,-0.12,-0.01,0.00,0.12
11.657,-0.07,0.00,-0.02,0.07
11.667,-0.07,0.02,-0.01,0.07
11.677,-0.08,-0.00,-0.00,0.08
11.687,-0.08,0.01,0.02,0.09
11.697,-0.11,0.01,0.02,0.11
11.707,-0.10,0.02,0.03,0.11
11.717,-0.11,0.03,0.04,0.12
11.727,-0.10,0.04,0.04,0.11
11.737,-0.11,0.04,0.00,0.12
11.747,-0.15,0.02,-0.02,0.15
11.757,-0.15,0.02,-0.03,0.16
11.767,-0.15,0.02,-0.06,0.16
11.777,-0.12,0.01,-0.10,0.16
11.787,-0.10,0.01,-0.11,0.15
11.797,-0.13,0.01,-0.08,0.16
11.807,-0.14,-0.00,-0.04,0.14
11.817,-0.13,-0.01,-0.03,0.14
11.827,-0.11,0.00,-0.01,0.11
11.837,-0.12,-0.00,0.02,0.12
11.847,-0.13,-0.00,0.04,0.13
11.857,-0.13,-0.00,0.02,0.13
11.867,-0.14,0.01,0.01,0.14
11.877,-0.15,0.01,0.01,0.15
11.887,-0.14,0.02,0.03,0.15
11.897,-0.13,0.02,0.04,0.14
11.907,-0.13,0.01,0.05,0.14
11.917,-0.12,0.01,0.01,0.12
11.927,-0.12,0.01,-0.05,0.14
11.937,-0.04,0.01,-0.05,0.06
11.948,-0.02,0.01,-0.04,0.05
11.957,-0.05,0.02,-0.04,0.07
11.967,-0.03,0.03,-0.02,0.05
11.978,-0.09,0.03,0.00,0.09
11.987,-0.12,0.03,0.03,0.13
11.997,-0.16,-0.00,0.07,0.17
12.007,-0.17,-0.01,0.02,0.17
12.017,-0.15,-0.01,-0.04,0.16
12.028,-0.11,-0.00,-0.02,0.11
12.037,-0.09,-0.02,-0.05,0.10
12.047,-0.04,0.01,-0.07,0.08
12.057,-0.04,0.00,-0.08,0.08
12.068,-0.06,-0.02,-0.06,0.09
12.078,-0.04,0.00,0.01,0.04
12.088,-0.08,-0.01,0.04,0.09
12.097,-0.12,0.01,0.02,0.12
12.108,-0.14,0.03,0.01,0.14
12.118,-0.14,0.04,0.03,0.15
12.128,-0.13,0.03,0.03,0.13
12.137,-0.13,0.03,0.02,0.14
12.148,-0.14,0.01,0.04,0.15
12.158,-0.15,-0.01,0.04,0.15
12.168,-0.16,0.00,0.01,0.16
12.177,-0.17,0.01,-0.01,0.17
12.188,-0.15,0.01,-0.02,0.16
12.198,-0.12,-0.01,-0.02,0.12
12.208,-0.09,-0.00,-0.04,0.10
12.217,-0.05,-0.04,-0.05,0.08
12.228,-0.03,-0.01,-0.04,0.05
12.238,-0.04,-0.03,-0.05,0.07
12.248,-0.08,-0.04,-0.06,0.11
12.258,-0.09,-0.02,-0.05,0.11
12.268,-0.12,-0.04,-0.05,0.14
12.278,-0.16,-0.02,-0.05,0.17
12.288,-0.18,0.00,-0.03,0.18
12.298,-0.18,-0.01,-0.02,0.18
12.308,-0.15,-0.01,-0.03,0.16
12.318,-0.11,0.02,-0.05,0.12
12.328,-0.07,0.03,-0.10,0.12
12.338,-0.08,0.03,-0.08,0.12
12.348,-0.06,0.04,-0.01,0.07
12.358,-0.09,0.04,0.02,0.10
12.368,-0.15,0.02,0.08,0.17
12.378,-0.12,0.01,0.13,0.18
12.388,-0.08,0.02,0.12,0.15
12.398,-0.13,0.02,0.08,0.15
12.408,-0.09,-0.01,0.04,0.10
12.418,-0.04,0.00,0.02,0.05
12.428,-0.08,-0.00,0.04,0.09
12.438,-0.11,-0.02,0.03,0.12
12.448,-0.15,-0.02,0.01,0.16
12.458,-0.20,-0.02,0.01,0.21
12.468,-0.21,0.00,-0.01,0.21
12.478,-0.19,-0.01,-0.05,0.19
12.488,-0.14,-0.01,-0.06,0.15
12.498,-0.10,-0.00,-0.07,0.12
12.508,-0.10,-0.01,-0.04,0.11
12.518,-0.13,0.01,-0.01,0.13
12.528,-0.11,0.03,0.00,0.12
12.538,-0.09,0.05,0.03,0.10
12.548,-0.09,0.05,0.03,0.10
12.558,-0.09,0.05,0.00,0.10
12.568,-0.12,0.03,-0.01,0.12
12.578,-0.10,0.03,-0.00,0.10
12.588,-0.07,0.02,-0.02,0.08
12.598,-0.06,0.04,-0.06,0.10
12.608,-0.07,0.01,-0.05,0.09
12.618,-0.07,0.01,-0.06,0.09
12.628,-0.10,0.01,-0.05,0.12
12.638,-0.09,0.02,-0.01,0.10
12.648,-0.13,-0.01,-0.00,0.13
12.658,-0.14,-0.01,0.00,0.14
12.668,-0.10,-0.01,-0.01,0.10
12.678,-0.11,-0.01,-0.06,0.13
12.688,-0.15,-0.03,-0.10,0.18
12.698,-0.16,-0.02,-0.08,0.18
12.708,-0.15,-0.02,-0.05,0.16
12.718,-0.13,-0.03,-0.07,0.15
12.728,-0.11,-0.03,-0.08,0.14
12.738,-0.09,-0.01,-0.10,0.13
12.748,-0.11,-0.02,-0.05,0.13
12.758,-0.15,-0.02,-0.00,0.15
12.768,-0.17,-0.01,-0.02,0.18
12.778,-0.22,0.01,-0.04,0.22
12.788,-0.22,-0.01,0.01,0.22
12.798,-0.19,-0.03,0.02,0.20
12.808,-0.17,-0.02,0.01,0.17
12.818,-0.11,-0.02,0.04,0.12
12.828,-0.06,-0.01,0.03,0.07
12.838,-0.04,-0.02,0.05,0.06
12.848,0.00,-0.01,0.09,0.09
12.858,-0.02,-0.01,0.09,0.09
12.868,-0.05,0.01,0.07,0.09
12.878,-0.07,0.04,0.02,0.08
12.888,-0.09,0.05,-0.01,0.11
12.898,-0.14,0.05,-0.01,0.15
12.908,-0.11,0.05,-0.02,0.12
12.918,-0.09,0.03,-0.05,0.11
12.928,-0.06,0.03,-0.05,0.09
12.938,-0.04,0.03,-0.07,0.09
12.948,-0.04,0.01,-0.07,0.08
12.958,-0.07,-0.00,-0.05,0.09
12.968,-0.07,-0.00,-0.04,0.08
12.978,-0.14,0.00,-0.02,0.14
12.988,-0.17,0.00,0.03,0.17
12.998,-0.15,0.01,0.06,0.16
13.008,-0.15,0.02,0.04,0.15
13.018,-0.16,0.03,0.04,0.17
13.028,-0.13,0.05,0.01,0.14
13.038,-0.12,0.02,-0.01,0.12
13.048,-0.07,0.02,-0.01,0.07
13.058,-0.05,-0.00,-0.02,0.06
13.068,-0.08,-0.02,-0.07,0.11
13.078,-0.11,-0.00,-0.11,0.15
13.088,-0.12,-0.03,-0.07,0.14
13.098,-0.17,-0.05,-0.03,0.18
13.108,-0.19,-0.04,-0.04,0.20
13.118,-0.17,-0.01,-0.06,0.18
13.128,-0.17,0.02,-0.03,0.17
13.138,-0.15,0.00,0.06,0.16
13.148,-0.15,0.01,0.08,0.17
13.158,-0.16,0.02,0.05,0.17
13.168,-0.13,0.02,0.10,0.16
13.178,-0.10,0.00,0.10,0.15
13.188,-0.09,-0.01,0.05,0.11
13.198,-0.11,-0.00,0.04,0.11
13.208,-0.07,-0.01,0.06,0.10
13.218,-0.04,-0.02,0.04,0.06
13.228,-0.03,-0.03,0.05,0.06
13.238,-0.04,-0.00,0.05,0.06
13.248,-0.06,-0.00,0.03,0.07
13.258,-0.08,0.02,0.01,0.08
13.268,-0.10,0.03,-0.00,0.11
13.281,-0.12,-0.00,0.01,0.12
13.291,-0.10,0.02,0.01,0.10
13.301,-0.11,0.02,-0.03,0.11
13.311,-0.09,0.02,-0.06,0.11
13.321,-0.06,-0.00,-0.06,0.09
13.331,-0.09,-0.01,-0.06,0.11
13.341,-0.12,-0.02,-0.10,0.16
13.351,-0.12,-0.01,-0.13,0.18
13.361,-0.11,-0.01,-0.10,0.15
13.371,-0.11,-0.03,-0.07,0.13
13.381,-0.12,-0.05,-0.04,0.13
13.391,-0.15,-0.03,-0.03,0.16
13.401,-0.16,-0.03,-0.07,0.17
13.411,-0.14,-0.02,-0.08,0.16
13.421,-0.16,-0.02,-0.06,0.17
13.431,-0.17,-0.02,-0.04,0.18
13.441,-0.13,-0.03,-0.01,0.14
13.451,-0.12,-0.03,0.01,0.12
13.461,-0.14,-0.02,0.04,0.14
13.471,-0.12,-0.00,0.04,0.13
13.481,-0.11,0.03,-0.02,0.12
13.491,-0.12,0.02,-0.05,0.13
13.501,-0.10,0.03,-0.06,0.11
13.511,-0.10,0.03,-0.11,0.15
13.521,-0.14,0.03,-0.12,0.18
13.531,-0.11,0.01,-0.10,0.15
13.541,-0.09,0.01,-0.10,0.13
13.551,-0.11,0.01,-0.07,0.13
13.561,-0.07,0.01,-0.03,0.08
13.571,-0.06,-0.00,-0.01,0.06
13.581,-0.07,0.00,0.01,0.07
13.591,-0.07,0.01,0.02,0.07
13.601,-0.10,0.01,0.03,0.11
13.611,-0.13,-0.00,0.02,0.13
13.621,-0.14,0.01,-0.03,0.14
13.631,-0.15,0.00,-0.05,0.16
13.641,-0.12,-0.00,-0.04,0.12
13.651,-0.11,0.01,-0.03,0.11
13.661,-0.12,0.02,-0.04,0.12
13.671,-0.09,0.02,0.01,0.09
13.681,-0.08,0.02,0.04,0.09
13.691,-0.07,0.03,0.03,0.08
13.701,-0.13,0.04,0.01,0.13
13.711,-0.15,0.05,-0.04,0.16
13.721,-0.19,0.03,-0.03,0.19
13.731,-0.19,0.00,0.02,0.19
13.741,-0.17,0.00,0.03,0.17
13.751,-0.14,0.01,0.03,0.15
13.761,-0.13,0.00,0.05,0.14
13.771,-0.13,0.01,0.07,0.15
13.781,-0.14,0.03,0.05,0.15
13.791,-0.12,0.03,0.04,0.13
13.801,-0.12,0.02,-0.00,0.12
13.811,-0.11,0.03,-0.05,0.13
13.821,-0.11,0.03,-0.07,0.13
13.831,-0.08,0.02,-0.04,0.09
13.841,-0.03,0.01,-0.01,0.03
13.851,-0.02,-0.01,-0.01,0.03
13.861,-0.00,0.00,-0.04,0.04
13.871,0.00,-0.00,-0.05,0.05
13.881,0.02,-0.02,-0.04,0.05
13.891,-0.00,-0.02,0.01,0.02
13.901,-0.04,-0.02,0.03,0.06
13.911,-0.10,-0.03,-0.01,0.10
13.921,-0.16,-0.03,-0.03,0.16
13.931,-0.22,-0.04,-0.04,0.23
13.941,-0.24,-0.05,-0.00,0.25
13.952,-0.22,-0.03,0.01,0.23
13.961,-0.21,-0.03,0.00,0.21
13.971,-0.16,-0.02,-0.02,0.16
13.981,-0.12,-0.02,-0.02,0.13
13.991,-0.10,0.01,-0.01,0.11
14.002,-0.12,0.01,0.02,0.12
14.011,-0.11,-0.01,0.08,0.14
14.021,-0.13,-0.01,0.12,0.18
14.031,-0.15,-0.00,0.11,0.19
14.041,-0.16,-0.01,0.10,0.19
14.052,-0.15,-0.01,0.10,0.18
14.062,-0.16,-0.02,0.08,0.18
14.071,-0.18,-0.00,0.03,0.18
14.081,-0.16,-0.00,-0.05,0.17
14.091,-0.10,0.00,-0.05,0.11
14.102,-0.07,-0.02,-0.01,0.07
14.112,-0.03,-0.01,0.01,0.04
14.121,-0.02,-0.01,-0.00,0.03
14.131,-0.02,-0.02,-0.04,0.05
14.141,-0.02,0.02,-0.06,0.07
14.151,-0.07,0.03,-0.07,0.10
14.162,-0.10,0.05,-0.08,0.13
14.171,-0.11,0.05,-0.04,0.13
14.181,-0.11,0.05,0.00,0.12
14.192,-0.12,0.03,-0.02,0.13
14.202,-0.12,0.04,-0.06,0.14
14.212,-0.12,0.05,-0.11,0.17
14.222,-0.10,0.03,-0.15,0.18
14.232,-0.10,0.03,-0.16,0.19
14.241,-0.12,0.03,-0.13,0.18
14.251,-0.15,0.00,-0.04,0.15
14.261,-0.17,-0.01,-0.01,0.17
14.271,-0.15,-0.03,0.01,0.15
14.281,-0.14,-0.03,0.02,0.15
14.292,-0.14,-0.02,0.03,0.14
14.302,-0.11,-0.03,-0.02,0.11
14.312,-0.08,-0.03,-0.05,0.10
14.322,-0.07,-0.03,-0.07,0.10
14.332,-0.07,-0.01,-0.11,0.13
14.342,-0.07,-0.01,-0.07,0.10
14.352,-0.10,-0.02,0.03,0.11
14.362,-0.11,-0.02,0.07,0.13
14.372,-0.16,-0.02,0.04,0.17
14.382,-0.17,0.01,0.01,0.17
14.392,-0.17,0.02,-0.00,0.17
14.402,-0.15,0.02,0.00,0.15
14.412,-0.14,0.01,-0.02,0.14
14.422,-0.12,0.03,-0.03,0.13
14.432,-0.14,0.03,-0.03,0.14
14.442,-0.14,0.01,-0.04,0.15
14.452,-0.11,0.01,-0.00,0.11
14.462,-0.06,-0.01,0.03,0.07
14.472,-0.06,0.00,-0.03,0.07
14.482,-0.05,0.03,-0.07,0.10
14.492,-0.04,0.03,-0.08,0.09
14.502,-0.05,0.02,-0.05,0.07
14.512,-0.07,0.01,-0.00,0.07
14.522,-0.09,-0.00,0.05,0.11
14.532,-0.11,-0.01,0.05,0.12
14.542,-0.14,0.02,-0.01,0.14
14.552,-0.16,0.02,-0.05,0.17
14.562,-0.18,0.01,-0.06,0.19
14.572,-0.17,0.02,0.00,0.17
14.582,-0.12,0.03,0.05,0.14
14.592,-0.09,0.00,0.09,0.13
14.602,-0.04,0.01,0.09,0.10
14.612,-0.03,0.01,0.06,0.07
14.622,-0.03,0.00,0.04,0.05
14.632,-0.06,0.02,-0.03,0.07
14.642,-0.17,0.02,0.02,0.18
14.652,-0.11,-0.02,0.05,0.13
14.662,-0.07,0.01,0.04,0.08
14.672,-0.07,0.01,-0.00,0.07
14.682,-0.07,0.02,-0.04,0.08
14.692,-0.07,-0.01,-0.03,0.08
14.702,-0.11,-0.02,-0.06,0.13
14.712,-0.20,0.03,-0.06,0.21
14.722,-0.16,-0.05,-0.06,0.18
14.732,-0.17,-0.04,-0.08,0.19
14.742,-0.17,-0.00,-0.12,0.21
14.752,-0.14,-0.00,-0.12,0.19
14.762,-0.11,-0.00,-0.07,0.13
14.772,-0.07,-0.01,-0.02,0.08
14.782,-0.08,0.01,-0.00,0.08
14.792,-0.07,0.02,-0.03,0.08
14.802,-0.09,0.04,-0.05,0.11
14.812,-0.09,0.04,-0.04,0.11
14.822,-0.08,0.03,-0.04,0.10
14.832,-0.08,0.03,-0.03,0.09
14.842,-0.09,0.02,0.02,0.09
14.852,-0.08,-0.01,0.07,0.11
14.862,-0.09,0.00,0.06,0.11
14.872,-0.10,-0.00,0.05,0.11
14.882,-0.11,-0.01,0.03,0.11
14.892,-0.09,0.02,0.01,0.09
14.902,-0.13,-0.00,0.02,0.13
14.912,-0.14,0.00,0.02,0.14
14.922,-0.13,-0.00,0.02,0.13
14.932,-0.11,-0.02,0.01,0.11
14.942,-0.09,-0.00,-0.00,0.09
14.952,-0.08,0.01,-0.06,0.10
14.962,-0.08,0.02,-0.11,0.14
14.972,-0.10,0.02,-0.09,0.14
14.982,-0.13,0.01,-0.04,0.13
14.992,-0.15,0.02,-0.03,0.15
15.002,-0.19,0.02,-0.01,0.19
15.012,-0.18,0.01,0.01,0.18
15.022,-0.15,0.00,0.02,0.15
15.032,-0.12,-0.00,-0.01,0.12
15.042,-0.07,-0.01,-0.03,0.08
15.052,-0.08,0.00,-0.04,0.09
15.062,-0.09,-0.01,-0.06,0.11
15.072,-0.10,-0.00,-0.05,0.11
15.082,-0.12,-0.00,-0.07,0.14
15.092,-0.13,0.00,-0.06,0.14
15.102,-0.12,-0.00,0.01,0.12
15.112,-0.09,-0.00,0.03,0.09
15.122,-0.09,-0.00,-0.00,0.09
15.132,-0.10,0.03,-0.04,0.11
15.142,-0.09,0.03,0.02,0.09
15.152,-0.11,0.01,0.07,0.13
15.162,-0.12,0.02,0.06,0.14
15.172,-0.15,0.02,0.01,0.15
15.182,-0.14,0.03,0.01,0.14
15.192,-0.13,0.03,-0.02,0.13
15.202,-0.12,0.02,-0.05,0.13
15.212,-0.09,0.03,-0.10,0.14
15.222,-0.08,0.03,-0.10,0.13
15.232,-0.07,0.01,-0.06,0.09
15.242,-0.07,-0.01,-0.01,0.07
15.252,-0.08,-0.00,0.01,0.08
15.262,-0.09,0.01,0.02,0.09
15.272,-0.11,0.01,-0.01,0.11
15.282,-0.12,0.01,-0.02,0.12
15.292,-0.13,0.03,-0.06,0.14
15.302,-0.14,0.02,-0.10,0.17
15.312,-0.15,0.00,-0.10,0.19
15.322,-0.13,-0.01,-0.11,0.17
15.332,-0.14,-0.01,-0.06,0.15
15.342,-0.16,-0.01,-0.06,0.17
15.352,-0.14,-0.02,-0.03,0.14
15.362,-0.11,-0.04,-0.00,0.12
15.372,-0.09,-0.02,-0.01,0.09
15.382,-0.08,0.01,-0.04,0.09
15.392,-0.08,0.02,-0.03,0.09
15.402,-0.05,0.00,-0.01,0.06
15.412,-0.09,-0.01,0.03,0.10
15.422,-0.10,0.00,0.04,0.11
15.433,-0.12,-0.02,0.02,0.13
15.442,-0.12,-0.01,-0.02,0.12
15.452,-0.11,-0.01,-0.03,0.12
15.462,-0.08,0.00,-0.02,0.08
15.472,-0.09,-0.00,0.04,0.09
15.482,-0.11,-0.00,0.06,0.12
15.493,-0.14,0.01,0.03,0.14
15.503,-0.18,0.03,0.03,0.18
15.513,-0.17,0.02,-0.01,0.18
15.522,-0.13,0.05,-0.05,0.14
15.533,-0.08,0.03,-0.05,0.10
15.542,-0.06,0.01,-0.06,0.09
15.553,-0.07,0.02,-0.08,0.10
15.562,-0.11,-0.01,-0.12,0.16
15.573,-0.13,-0.03,-0.15,0.20
15.582,-0.17,-0.03,-0.16,0.24
15.593,-0.16,-0.04,-0.13,0.20
15.603,-0.17,-0.04,-0.09,0.20
15.613,-0.18,-0.03,-0.06,0.19
15.623,-0.17,-0.02,-0.01,0.17
15.633,-0.13,-0.02,0.05,0.14
15.643,-0.09,-0.01,0.05,0.11
15.653,-0.05,0.01,0.07,0.08
15.663,-0.02,0.02,0.09,0.09
15.673,-0.01,0.03,0.11,0.11
15.683,-0.01,0.03,0.16,0.17
15.692,-0.04,0.02,0.17,0.17
15.703,-0.06,0.03,0.20,0.21
15.713,-0.08,0.01,0.19,0.21
15.723,-0.07,0.00,0.13,0.15
15.733,-0.09,0.01,0.06,0.11
15.743,-0.10,-0.00,0.06,0.11
15.753,-0.12,0.01,0.00,0.12
15.763,-0.09,0.03,-0.01,0.10
15.773,-0.04,0.02,0.02,0.05
15.783,-0.04,0.01,-0.01,0.04
15.793,0.03,0.03,-0.04,0.06
15.803,0.06,0.03,-0.06,0.09
15.813,0.00,0.04,-0.09,0.10
15.823,-0.05,0.04,-0.14,0.16
15.833,-0.06,0.04,-0.18,0.20
15.843,-0.12,0.06,-0.24,0.27
15.853,-0.18,0.04,-0.26,0.32
15.863,-0.23,0.02,-0.31,0.38
15.873,-0.27,-0.00,-0.36,0.45
15.883,-0.25,-0.02,-0.38,0.45
15.893,-0.22,0.00,-0.36,0.42
15.903,-0.16,-0.00,-0.33,0.36
15.913,-0.05,-0.00,-0.33,0.33
15.923,-0.01,-0.00,-0.28,0.28
15.933,-0.02,-0.03,-0.18,0.18
15.943,-0.08,-0.04,-0.15,0.17
15.953,-0.14,-0.03,-0.13,0.19
15.963,-0.18,-0.03,-0.09,0.21
15.973,-0.23,-0.04,-0.05,0.24
15.983,-0.24,-0.03,0.01,0.24
15.993,-0.19,-0.05,0.02,0.20
16.003,-0.14,-0.04,-0.06,0.16
16.013,-0.24,-0.02,-0.03,0.24
16.023,-0.16,-0.06,0.04,0.17
16.033,-0.14,-0.05,0.08,0.17
16.043,-0.18,-0.06,0.17,0.25
16.053,-0.15,-0.05,0.17,0.23
16.063,-0.16,-0.02,0.17,0.23
16.073,-0.16,-0.03,0.15,0.22
16.083,-0.18,-0.02,0.16,0.24
16.093,-0.25,0.03,0.17,0.30
16.103,-0.20,-0.01,0.16,0.26
16.113,-0.19,-0.04,0.15,0.25
16.123,-0.14,-0.02,0.17,0.22
16.133,-0.11,-0.01,0.21,0.24
16.143,-0.11,-0.01,0.25,0.28
16.153,-0.04,0.01,0.23,0.23
16.163,-0.01,0.04,0.23,0.24
16.173,-0.00,0.05,0.24,0.25
16.183,-0.08,0.03,0.25,0.26
16.193,-0.03,0.04,0.14,0.15
16.203,-0.06,0.12,0.08,0.15
16.213,-0.11,0.03,0.08,0.13
16.223,-0.11,0.05,-0.05,0.13
16.233,-0.16,0.09,0.05,0.19
16.243,-0.11,0.01,0.02,0.11
16.253,-0.10,-0.01,-0.01,0.10
16.263,-0.13,0.05,-0.01,0.14
16.273,-0.13,0.02,-0.04,0.14
16.283,-0.14,0.02,-0.00,0.14
16.293,-0.14,0.03,0.02,0.15
16.303,-0.12,0.01,0.07,0.14
16.313,-0.06,0.03,0.12,0.14
16.323,-0.01,0.02,0.12,0.13
16.333,0.03,0.03,0.08,0.09
16.343,0.03,0.05,0.03,0.06
16.353,0.02,0.03,0.03,0.05
16.363,-0.01,0.00,-0.00,0.01
16.373,-0.06,0.00,-0.05,0.07
16.383,-0.08,0.00,-0.06,0.10
16.393,-0.10,-0.01,-0.05,0.12
16.403,-0.13,-0.01,-0.07,0.15
16.413,-0.14,0.01,-0.09,0.16
16.423,-0.15,0.01,-0.07,0.17
16.433,-0.20,-0.02,-0.02,0.20
16.443,-0.16,-0.03,-0.00,0.17
16.453,-0.15,-0.05,-0.02,0.16
16.463,-0.29,-0.05,-0.04,0.30
16.473,-0.20,-0.04,-0.08,0.22
16.483,-0.20,-0.03,-0.11,0.23
16.493,-0.17,-0.05,-0.13,0.22
16.503,-0.13,-0.03,-0.14,0.19
16.513,-0.09,-0.04,-0.10,0.14
16.523,-0.05,-0.03,-0.08,0.10
16.533,-0.03,-0.01,-0.12,0.12
16.543,-0.05,-0.02,-0.09,0.10
16.553,-0.05,-0.03,-0.02,0.06
16.563,-0.09,-0.01,-0.01,0.09
16.573,0.01,-0.02,-0.03,0.04
16.583,-0.10,-0.03,0.04,0.11
16.593,-0.10,-0.08,0.04,0.14
16.603,-0.07,-0.04,-0.02,0.08
16.613,-0.11,-0.04,0.01,0.12
16.623,-0.10,-0.05,0.03,0.12
16.633,-0.06,-0.03,0.03,0.07
16.643,-0.05,-0.03,0.01,0.06
16.653,-0.05,-0.02,-0.03,0.07
16.663,-0.09,-0.00,-0.04,0.10
16.673,-0.12,0.02,-0.05,0.13
16.683,-0.13,0.05,-0.07,0.16
16.693,-0.14,0.06,-0.09,0.18
16.703,-0.16,0.07,-0.08,0.19
16.713,-0.13,0.08,-0.06,0.16
16.723,-0.10,0.10,-0.07,0.16
16.733,-0.08,0.09,-0.10,0.16
16.743,-0.07,0.08,-0.12,0.16
16.753,-0.08,0.06,-0.08,0.13
16.763,-0.12,0.02,-0.03,0.12
16.773,-0.11,0.01,0.02,0.11
16.783,-0.07,0.00,-0.04,0.08
16.794,-0.05,0.03,-0.08,0.10
16.803,-0.09,0.00,-0.06,0.11
16.813,-0.11,0.02,-0.06,0.13
16.823,-0.14,0.01,-0.06,0.15
16.834,-0.14,0.02,-0.05,0.15
16.844,-0.17,0.02,-0.04,0.17
16.853,-0.18,0.01,-0.00,0.18
16.863,-0.15,-0.00,0.01,0.15
16.874,-0.13,0.00,0.01,0.13
16.884,-0.11,-0.01,-0.00,0.11
16.893,-0.05,0.01,-0.07,0.09
16.904,-0.07,0.02,-0.09,0.11
16.911,-0.08,0.00,-0.05,0.10
16.921,-0.11,-0.00,0.00,0.11
16.931,-0.11,0.01,0.03,0.12
16.941,-0.12,0.02,0.02,0.12
16.951,-0.13,0.03,-0.03,0.13
16.961,-0.12,0.05,-0.05,0.14
16.971,-0.15,0.03,-0.05,0.16
16.981,-0.13,0.02,-0.05,0.14
16.991,-0.13,0.00,-0.03,0.13
17.001,-0.14,0.01,-0.02,0.14
17.011,-0.15,-0.00,0.02,0.15
17.021,-0.17,-0.01,-0.00,0.17
17.031,-0.16,-0.02,0.02,0.16
17.041,-0.16,-0.02,0.00,0.16
17.051,-0.17,-0.02,-0.00,0.17
17.061,-0.13,-0.02,0.05,0.14
17.071,-0.10,0.00,0.05,0.11
17.081,-0.01,0.00,0.06,0.06
17.091,0.02,0.01,0.03,0.04
17.101,0.05,0.01,0.07,0.08
17.111,0.08,0.02,0.04,0.10
17.121,0.03,0.00,0.02,0.03
17.131,-0.02,0.04,-0.02,0.05
17.141,-0.08,0.01,-0.07,0.11
17.151,-0.16,0.04,-0.11,0.20
17.161,-0.21,0.04,-0.10,0.24
17.171,-0.25,0.02,-0.08,0.26
17.181,-0.25,0.01,-0.06,0.26
17.191,-0.19,0.02,-0.10,0.21
17.201,-0.11,0.04,-0.15,0.19
17.211,-0.08,0.02,-0.10,0.13
17.221,-0.05,-0.00,-0.06,0.08
17.231,-0.04,0.00,-0.04,0.06
17.241,-0.03,0.01,-0.01,0.03
17.251,-0.05,-0.00,0.02,0.05
17.261,-0.06,0.01,-0.01,0.06
17.271,-0.09,0.01,-0.03,0.10
17.282,-0.09,0.03,-0.07,0.12
17.293,-0.12,0.02,-0.07,0.14
17.302,-0.13,0.04,-0.05,0.15
17.313,-0.14,0.02,-0.02,0.14
17.323,-0.17,-0.00,0.02,0.17
17.333,-0.18,-0.01,0.03,0.19
17.343,-0.19,-0.00,0.03,0.19
17.353,-0.17,0.01,-0.01,0.17
17.363,-0.12,0.01,-0.06,0.13
17.373,-0.08,-0.00,-0.07,0.11
17.383,-0.05,-0.01,-0.04,0.06
17.393,-0.03,-0.04,0.02,0.06
17.403,-0.02,-0.04,0.05,0.07
17.413,-0.03,-0.03,0.03,0.05
17.423,-0.06,-0.00,-0.03,0.07
17.433,-0.12,-0.00,-0.03,0.12
17.443,-0.14,-0.03,0.02,0.14
17.453,-0.17,-0.03,0.02,0.17
17.463,-0.17,-0.03,0.02,0.17
17.473,-0.15,-0.02,0.02,0.16
17.483,-0.11,-0.02,-0.04,0.12
17.493,-0.10,-0.01,-0.07,0.12
17.503,-0.07,-0.01,-0.09,0.12
17.513,-0.06,-0.00,-0.12,0.13
17.523,-0.11,0.01,-0.09,0.14
17.533,-0.11,-0.01,-0.03,0.12
17.543,-0.14,-0.02,-0.01,0.14
17.553,-0.15,-0.02,-0.00,0.15
17.563,-0.16,-0.00,-0.03,0.17
17.573,-0.15,0.01,-0.05,0.16
17.583,-0.12,0.01,-0.05,0.13
17.593,-0.13,0.01,-0.05,0.14
17.603,-0.14,-0.01,-0.03,0.14
17.613,-0.15,-0.01,-0.01,0.15
17.623,-0.11,0.00,0.00,0.11
17.633,-0.06,-0.01,-0.01,0.06
17.643,-0.07,-0.02,-0.03,0.08
17.653,-0.08,0.00,0.02,0.08
17.663,-0.12,-0.01,0.05,0.13
17.673,-0.11,-0.01,0.03,0.11
17.683,-0.11,-0.02,-0.01,0.11
17.693,-0.12,-0.02,-0.01,0.12
17.703,-0.13,-0.02,0.02,0.14
17.713,-0.17,-0.00,0.05,0.18
17.723,-0.15,-0.00,0.05,0.16
17.733,-0.08,0.00,0.02,0.08
17.743,-0.07,0.04,-0.08,0.11
17.753,-0.09,0.04,-0.12,0.16
17.763,-0.12,0.01,-0.05,0.13
17.773,-0.15,0.02,0.04,0.16
17.783,-0.13,0.02,0.08,0.15
17.793,-0.11,0.02,0.01,0.11
17.803,-0.11,0.04,-0.01,0.12
17.813,-0.08,0.04,0.01,0.10
17.823,-0.09,0.03,0.03,0.10
17.833,-0.10,0.02,0.02,0.11
17.843,-0.11,0.02,-0.02,0.12
17.853,-0.12,0.02,-0.03,0.13
17.863,-0.11,-0.01,-0.04,0.12
17.873,-0.12,0.00,-0.05,0.13
17.883,-0.18,-0.02,-0.05,0.19
17.893,-0.19,-0.02,-0.04,0.20
17.903,-0.19,-0.02,-0.03,0.20
17.913,-0.17,-0.02,-0.01,0.17
17.923,-0.15,0.00,0.01,0.15
17.933,-0.17,0.02,0.04,0.18
17.943,-0.16,0.04,0.06,0.17
17.953,-0.16,0.04,0.07,0.18
17.963,-0.14,0.04,0.08,0.17
17.973,-0.12,0.02,0.08,0.14
17.983,-0.07,0.02,0.07,0.10
17.993,-0.04,0.02,-0.01,0.05
18.003,0.03,0.02,-0.04,0.05
18.013,0.08,-0.01,-0.03,0.09
18.023,0.09,-0.03,-0.03,0.10
18.033,0.09,0.00,-0.07,0.11
18.043,0.07,0.02,-0.08,0.11
18.053,0.03,-0.01,-0.05,0.06
18.063,-0.08,-0.02,-0.03,0.09
18.073,-0.16,0.01,-0.01,0.17
18.083,-0.20,0.02,0.04,0.21
18.093,-0.26,0.00,0.03,0.26
18.103,-0.28,0.03,0.01,0.28
18.113,-0.25,0.01,-0.01,0.25
18.123,-0.19,-0.01,-0.01,0.19
18.133,-0.17,-0.02,-0.03,0.18
18.143,-0.12,-0.02,-0.06,0.13
18.153,-0.08,-0.01,-0.07,0.11
18.163,-0.07,-0.01,-0.08,0.10
18.173,-0.06,-0.02,-0.04,0.07
18.183,-0.01,-0.03,0.02,0.03
18.193,0.02,-0.02,0.02,0.03
18.203,0.04,0.00,0.02,0.04
18.213,0.05,-0.02,0.06,0.08
18.223,0.03,-0.03,0.10,0.11
18.233,0.03,-0.03,0.10,0.11
18.243,-0.02,-0.01,0.06,0.06
18.253,-0.09,-0.02,0.02,0.10
18.263,-0.14,-0.01,-0.02,0.14
18.273,-0.17,-0.02,-0.05,0.18
18.283,-0.21,-0.02,-0.11,0.24
18.293,-0.22,-0.00,-0.12,0.25
18.303,-0.20,-0.02,-0.11,0.23
18.313,-0.14,-0.02,-0.12,0.19
18.323,-0.07,0.01,-0.13,0.15
18.333,-0.03,0.04,-0.14,0.14
18.343,-0.04,0.04,-0.11,0.12
18.353,-0.07,0.06,-0.09,0.13
18.363,-0.15,0.07,-0.07,0.18
18.373,-0.22,0.07,-0.08,0.24
18.383,-0.28,0.06,-0.03,0.29
18.393,-0.33,0.05,-0.05,0.34
18.403,-0.34,0.04,-0.07,0.34
18.413,-0.26,0.05,-0.08,0.28
18.423,-0.14,0.01,-0.09,0.17
18.433,-0.04,0.01,-0.08,0.09
18.443,0.01,-0.02,-0.03,0.04
18.453,0.03,-0.03,0.03,0.05
18.463,0.01,-0.02,0.01,0.02
18.474,-0.02,0.01,-0.05,0.05
18.483,-0.05,-0.01,-0.05,0.08
18.493,-0.11,0.01,-0.05,0.12
18.503,-0.14,0.02,-0.01,0.14
18.513,-0.15,0.00,0.08,0.17
18.523,-0.10,-0.00,0.09,0.13
18.533,-0.08,-0.00,0.08,0.12
18.544,-0.00,0.00,0.02,0.02
18.553,-0.00,-0.04,0.02,0.04
18.563,0.01,-0.04,-0.01,0.05
18.574,-0.04,-0.08,-0.02,0.09
18.583,-0.12,-0.08,-0.04,0.15
18.593,-0.15,-0.05,-0.05,0.17
18.604,-0.22,-0.02,-0.04,0.22
18.614,-0.24,-0.02,-0.02,0.24
18.623,-0.23,0.01,-0.03,0.23
18.634,-0.23,0.05,-0.05,0.24
18.644,-0.23,0.04,-0.02,0.24
18.654,-0.19,0.04,0.02,0.20
18.664,-0.18,0.05,0.04,0.19
18.674,-0.16,0.03,0.02,0.16
18.684,-0.13,-0.00,0.02,0.13
18.694,-0.09,-0.03,-0.01,0.10
18.704,-0.10,-0.05,-0.03,0.11
18.714,-0.10,-0.07,-0.03,0.12
18.724,-0.11,-0.06,-0.06,0.14
18.734,-0.13,-0.07,-0.01,0.15
18.744,-0.17,-0.06,0.03,0.18
18.754,-0.21,-0.06,0.04,0.22
18.764,-0.20,-0.04,0.02,0.20
18.774,-0.18,-0.04,0.01,0.19
18.784,-0.15,-0.01,-0.01,0.15
18.794,-0.12,-0.00,-0.04,0.13
18.804,-0.09,-0.02,0.01,0.10
18.814,-0.07,-0.05,0.04,0.09
18.824,-0.05,-0.04,0.06,0.09
18.834,-0.01,-0.04,0.03,0.05
18.844,-0.02,-0.02,0.02,0.03
18.854,-0.03,-0.00,0.04,0.05
18.864,-0.03,0.02,0.09,0.09
18.874,-0.06,0.02,0.13,0.14
18.884,-0.11,0.02,0.10,0.15
18.894,-0.16,0.04,0.03,0.17
18.904,-0.16,0.05,0.01,0.17
18.914,-0.15,0.03,-0.03,0.16
18.924,-0.12,0.03,-0.08,0.15
18.934,-0.08,0.02,-0.10,0.13
18.944,-0.04,0.02,-0.09,0.10
18.954,-0.06,0.01,-0.10,0.12
18.964,-0.06,0.03,-0.13,0.15
18.974,-0.06,0.06,-0.13,0.16
18.984,-0.09,0.06,-0.07,0.13
18.994,-0.11,0.05,-0.05,0.13
19.004,-0.15,0.05,-0.03,0.16
19.014,-0.17,0.05,-0.04,0.18
19.024,-0.20,0.06,-0.06,0.21
19.034,-0.21,0.05,-0.09,0.23
19.044,-0.17,0.04,-0.04,0.18
19.054,-0.12,-0.00,-0.04,0.13
19.064,-0.10,-0.00,-0.01,0.10
19.074,-0.07,-0.02,0.00,0.07
19.084,-0.08,-0.03,0.05,0.10
19.094,-0.08,-0.02,0.07,0.11
19.104,-0.04,-0.02,0.06,0.07
19.114,-0.04,-0.03,0.04,0.07
19.124,-0.08,-0.01,0.04,0.09
19.134,-0.11,0.01,-0.01,0.11
19.144,-0.12,0.01,-0.06,0.14
19.154,-0.15,-0.00,-0.02,0.15
19.164,-0.15,0.02,-0.01,0.15
19.174,-0.18,-0.00,-0.02,0.18
19.184,-0.19,-0.02,0.01,0.19
19.194,-0.19,-0.03,-0.01,0.20
19.204,-0.20,-0.03,-0.00,0.20
19.214,-0.19,-0.05,-0.05,0.20
19.224,-0.19,-0.05,-0.07,0.21
19.234,-0.15,-0.04,-0.08,0.17
19.244,-0.09,-0.03,-0.09,0.13
19.254,-0.06,-0.05,-0.07,0.10
19.264,-0.07,-0.05,-0.02,0.09
19.274,-0.07,-0.05,0.04,0.10
19.284,-0.09,-0.05,0.08,0.13
19.294,-0.11,-0.04,0.08,0.14
19.304,-0.11,-0.04,0.06,0.13
19.314,-0.08,-0.03,0.03,0.09
19.324,-0.09,-0.03,0.00,0.09
19.334,-0.08,-0.05,-0.05,0.11
19.344,-0.06,-0.04,-0.04,0.08
19.354,-0.06,-0.02,-0.02,0.06
19.364,-0.05,-0.04,0.03,0.07
19.374,-0.07,-0.02,0.04,0.08
19.384,-0.10,-0.01,0.01,0.10
19.394,-0.12,0.01,0.03,0.12
19.404,-0.15,0.04,0.03,0.16
19.414,-0.19,0.03,0.03,0.19
19.424,-0.17,0.04,0.06,0.19
19.434,-0.16,0.06,0.05,0.18
19.444,-0.14,0.07,0.04,0.16
19.454,-0.16,0.04,-0.00,0.17
19.464,-0.17,0.04,-0.00,0.18
19.474,-0.15,0.03,-0.01,0.15
19.484,-0.14,0.04,-0.03,0.15
19.494,-0.09,0.05,-0.04,0.11
19.504,-0.12,0.00,-0.09,0.15
19.514,-0.08,-0.00,-0.08,0.11
19.524,-0.08,0.04,-0.06,0.10
19.534,0.01,0.02,-0.10,0.10
19.544,0.01,0.01,0.02,0.03
19.554,-0.02,-0.02,0.04,0.05
19.564,0.01,0.01,-0.02,0.02
19.574,-0.01,0.02,-0.08,0.08
19.584,-0.04,0.01,-0.08,0.08
19.594,-0.11,0.01,-0.08,0.13
19.604,-0.15,0.01,-0.06,0.16
19.614,-0.19,0.00,-0.01,0.19
19.624,-0.22,0.01,-0.04,0.22
19.634,-0.21,0.01,-0.09,0.22
19.644,-0.18,0.01,-0.11,0.21
19.654,-0.15,-0.02,-0.11,0.19
19.664,-0.11,-0.04,-0.10,0.15
19.674,-0.06,-0.04,-0.11,0.13
19.684,-0.01,-0.01,-0.09,0.09
19.694,-0.01,-0.00,-0.08,0.08
19.704,-0.07,-0.01,-0.06,0.09
19.714,-0.12,0.00,-0.02,0.12
19.724,-0.16,0.01,0.00,0.16
19.734,-0.18,0.01,-0.03,0.18
19.744,-0.16,0.05,-0.06,0.18
19.754,-0.16,0.07,-0.07,0.19
19.764,-0.14,0.04,-0.08,0.17
19.774,-0.14,0.04,-0.07,0.16
19.784,-0.16,0.04,-0.05,0.17
19.794,-0.16,0.04,-0.04,0.17
19.804,-0.17,0.02,-0.05,0.18
19.814,-0.17,0.02,-0.03,0.17
19.824,-0.15,0.02,0.01,0.15
19.834,-0.09,-0.01,0.05,0.11
19.844,-0.05,-0.00,0.07,0.08
19.854,-0.01,-0.00,0.04,0.05
19.864,0.05,-0.01,0.02,0.05
19.874,0.04,-0.02,0.01,0.04
19.884,-0.03,-0.04,-0.00,0.05
19.894,-0.07,-0.05,-0.01,0.08
19.904,-0.07,-0.05,-0.04,0.10
19.914,-0.11,-0.04,-0.07,0.13
19.924,-0.11,-0.03,-0.10,0.15
19.934,-0.09,-0.01,-0.13,0.16
19.944,-0.07,0.01,-0.12,0.14
19.954,-0.09,0.03,-0.07,0.12
19.964,-0.10,0.06,-0.06,0.13
19.975,-0.13,0.07,-0.01,0.15
19.984,-0.15,0.05,0.06,0.17
19.995,-0.18,0.04,0.14,0.24
20.004,-0.21,0.02,0.17,0.27
20.015,-0.22,0.02,0.14,0.26
20.024,-0.20,0.04,0.08,0.21
20.035,-0.15,0.05,0.08,0.18
20.045,-0.10,0.03,0.05,0.12
20.055,-0.13,0.03,-0.00,0.13
20.065,-0.12,0.03,-0.02,0.13
20.075,-0.09,0.02,-0.02,0.10
20.085,-0.07,0.02,-0.04,0.09
20.095,-0.06,0.02,-0.05,0.08
20.104,-0.03,0.01,-0.02,0.04
20.115,-0.02,0.02,0.03,0.05
20.125,-0.05,0.03,0.06,0.08
20.135,-0.08,0.03,0.13,0.16
20.145,-0.11,0.03,0.17,0.20
20.155,-0.11,0.03,0.17,0.21
20.165,-0.12,0.03,0.11,0.16
20.175,-0.09,0.02,0.03,0.10
20.185,-0.05,0.02,-0.03,0.06
20.195,-0.05,0.01,-0.09,0.10
20.205,-0.09,-0.03,-0.11,0.15
20.215,-0.10,-0.03,-0.09,0.14
20.225,-0.14,-0.03,-0.06,0.16
20.235,-0.23,-0.06,-0.03,0.24
20.245,-0.24,-0.06,0.02,0.25
20.255,-0.25,-0.07,0.02,0.26
20.265,-0.23,-0.08,0.02,0.25
20.275,-0.17,-0.08,0.03,0.19
20.285,-0.11,-0.08,-0.03,0.14
20.295,-0.07,-0.09,-0.07,0.13
20.305,-0.02,-0.08,-0.04,0.09
20.315,-0.03,-0.08,-0.01,0.09
20.325,-0.06,-0.06,0.01,0.09
20.335,-0.06,-0.03,0.00,0.07
20.345,-0.10,-0.04,0.01,0.11
20.355,-0.16,-0.02,0.02,0.16
20.365,-0.21,-0.02,0.02,0.21
20.375,-0.23,-0.01,0.03,0.23
20.385,-0.21,0.02,0.03,0.21
20.395,-0.16,0.02,0.02,0.17
20.405,-0.10,0.03,-0.03,0.11
20.415,-0.02,0.03,-0.02,0.05
20.425,-0.00,0.03,0.01,0.03
20.435,0.01,0.01,0.00,0.01
20.445,0.02,0.01,0.01,0.02
20.455,-0.01,0.01,-0.01,0.02
20.465,-0.03,0.00,-0.02,0.04
20.475,-0.08,0.02,-0.03,0.09
20.485,-0.11,0.02,-0.06,0.12
20.495,-0.15,0.02,-0.06,0.16
20.505,-0.15,0.00,-0.06,0.16
20.515,-0.17,-0.01,-0.04,0.17
20.525,-0.18,-0.02,-0.06,0.19
20.535,-0.19,0.00,-0.06,0.20
20.545,-0.20,0.02,-0.07,0.22
20.555,-0.23,0.02,-0.09,0.25
20.565,-0.20,0.04,-0.11,0.23
20.575,-0.16,0.03,-0.08,0.18
20.585,-0.12,0.02,-0.03,0.13
20.595,-0.09,0.04,-0.02,0.10
20.605,-0.09,0.04,0.03,0.10
20.615,-0.07,0.01,0.10,0.12
20.625,-0.06,0.02,0.09,0.11
20.635,-0.09,0.01,0.07,0.11
20.645,-0.09,0.02,0.03,0.10
20.655,-0.09,-0.00,0.03,0.09
20.665,-0.10,-0.01,-0.01,0.10
20.675,-0.10,-0.01,-0.02,0.10
20.685,-0.07,-0.02,-0.00,0.07
20.695,-0.06,-0.03,-0.02,0.07
20.705,-0.09,-0.04,-0.03,0.10
20.715,-0.09,-0.01,-0.05,0.10
20.725,-0.08,-0.01,-0.08,0.12
20.735,-0.10,-0.00,-0.07,0.13
20.745,-0.15,-0.00,0.02,0.15
20.755,-0.18,-0.03,0.02,0.19
20.765,-0.18,0.01,0.01,0.18
20.775,-0.18,0.00,-0.01,0.18
20.785,-0.15,0.03,-0.05,0.16
20.795,-0.13,0.04,-0.05,0.15
20.805,-0.11,0.04,-0.06,0.13
20.815,-0.09,0.02,-0.03,0.09
20.825,-0.10,0.01,-0.02,0.10
20.835,-0.12,0.01,-0.02,0.12
20.845,-0.11,0.02,-0.03,0.12
20.855,-0.16,0.00,-0.01,0.16
20.865,-0.15,-0.02,0.02,0.15
20.875,-0.14,-0.01,0.05,0.15
20.885,-0.13,-0.02,-0.01,0.13
20.895,-0.09,-0.01,-0.07,0.12
20.905,-0.06,0.01,-0.07,0.10
20.914,-0.07,-0.01,-0.06,0.09
20.924,-0.07,-0.03,-0.04,0.08
20.934,-0.08,-0.03,-0.01,0.09
20.944,-0.09,-0.02,-0.00,0.09
20.954,-0.10,-0.03,-0.02,0.11
20.964,-0.10,-0.01,-0.01,0.10
20.974,-0.08,0.01,-0.01,0.08
20.984,-0.10,0.02,-0.01,0.10
20.994,-0.14,-0.00,0.06,0.16
21.004,-0.14,-0.00,0.13,0.19
21.014,-0.13,-0.01,0.13,0.19
21.024,-0.17,-0.02,0.10,0.20
21.034,-0.16,-0.02,0.08,0.18
21.044,-0.10,-0.00,0.02,0.11
21.054,-0.11,-0.01,-0.04,0.11
21.064,-0.09,-0.02,-0.04,0.10
21.074,-0.07,-0.01,-0.06,0.10
21.084,-0.05,-0.00,-0.01,0.05
21.094,-0.05,-0.01,0.02,0.06
21.104,-0.08,-0.02,0.02,0.09
21.114,-0.10,-0.01,-0.02,0.10
21.124,-0.12,0.01,-0.05,0.14
21.134,-0.12,0.01,-0.08,0.14
21.144,-0.11,-0.01,-0.08,0.14
21.154,-0.12,0.01,-0.09,0.15
21.164,-0.11,0.02,-0.11,0.16
21.174,-0.10,-0.00,-0.09,0.14
21.184,-0.10,-0.02,-0.08,0.13
21.194,-0.10,-0.02,-0.07,0.12
21.204,-0.17,-0.02,-0.11,0.21
21.214,-0.19,-0.02,-0.08,0.21
21.224,-0.20,-0.01,-0.07,0.22
21.234,-0.22,-0.03,-0.05,0.23
21.244,-0.20,-0.03,-0.04,0.21
21.254,-0.20,-0.02,-0.01,0.21
21.264,-0.17,-0.02,0.02,0.18
21.278,-0.16,-0.01,0.01,0.16
21.288,-0.14,0.01,0.01,0.14
21.298,-0.11,0.02,-0.00,0.11
21.308,-0.06,0.04,0.05,0.09
21.318,0.02,0.04,0.09,0.10
21.328,0.06,0.03,0.10,0.12
21.338,0.06,0.05,0.08,0.11
21.348,0.03,0.07,0.08,0.11
21.358,0.01,0.05,0.10,0.11
21.368,-0.02,0.05,0.12,0.13
21.378,-0.10,0.07,0.09,0.15
21.388,-0.14,0.04,0.07,0.16
21.398,-0.16,0.06,0.03,0.17
21.408,-0.20,0.07,-0.03,0.21
21.418,-0.23,0.07,-0.04,0.24
21.428,-0.21,0.07,-0.02,0.22
21.438,-0.17,0.07,-0.01,0.19
21.448,-0.16,0.06,-0.00,0.17
21.458,-0.17,0.05,-0.01,0.18
21.468,-0.15,0.05,-0.03,0.16
21.478,-0.13,0.03,-0.07,0.15
21.488,-0.05,0.03,-0.09,0.10
21.498,-0.05,0.03,-0.10,0.11
21.508,-0.07,0.01,-0.10,0.13
21.518,-0.13,0.00,-0.10,0.16
21.528,-0.12,0.00,-0.07,0.14
21.538,-0.11,0.00,-0.09,0.14
21.548,-0.09,-0.01,-0.11,0.14
21.558,-0.09,0.00,-0.11,0.14
21.568,-0.11,0.00,-0.10,0.15
21.578,-0.10,-0.01,-0.09,0.13
21.588,-0.07,0.01,-0.07,0.10
21.598,-0.07,0.00,-0.05,0.08
21.608,-0.13,-0.00,-0.04,0.14
21.618,-0.19,-0.01,-0.05,0.20
21.628,-0.24,-0.01,-0.03,0.24
21.638,-0.28,-0.02,0.03,0.28
21.648,-0.26,-0.02,0.09,0.27
21.658,-0.15,-0.01,0.13,0.20
21.668,-0.11,-0.01,0.08,0.14
21.678,-0.07,-0.00,-0.01,0.07
21.688,-0.01,-0.01,-0.08,0.08
21.698,0.01,-0.03,-0.08,0.09
21.708,0.05,-0.03,-0.07,0.09
21.718,0.02,-0.04,-0.01,0.05
21.728,-0.06,-0.06,0.04,0.09
21.738,-0.09,-0.07,0.07,0.13
21.748,-0.12,-0.05,0.01,0.13
21.758,-0.15,-0.03,-0.04,0.15
21.768,-0.15,-0.02,-0.03,0.15
21.778,-0.16,-0.02,-0.00,0.16
21.788,-0.15,-0.02,0.01,0.15
21.798,-0.14,-0.01,-0.01,0.14
21.808,-0.13,-0.01,-0.08,0.15
21.818,-0.08,0.02,-0.14,0.16
21.828,-0.05,-0.00,-0.14,0.15
21.838,-0.05,0.00,-0.12,0.13
21.848,-0.07,0.03,-0.10,0.13
21.858,-0.10,0.02,-0.08,0.13
21.868,-0.14,0.03,-0.07,0.16
21.878,-0.13,0.04,-0.07,0.16
21.888,-0.14,0.07,-0.06,0.17
21.898,-0.16,0.05,-0.05,0.17
21.908,-0.15,0.07,-0.04,0.17
21.918,-0.12,0.07,-0.02,0.14
21.929,-0.14,0.04,-0.00,0.14
21.938,-0.14,0.02,-0.01,0.14
21.949,-0.13,0.00,-0.02,0.13
21.958,-0.08,-0.00,-0.03,0.09
21.968,-0.07,0.01,-0.06,0.10
21.978,-0.05,0.02,-0.03,0.06
21.988,-0.04,0.01,0.01,0.05
21.998,-0.03,-0.00,0.05,0.06
22.008,-0.07,0.01,0.08,0.11
22.018,-0.13,0.03,0.07,0.15
22.028,-0.14,0.01,0.05,0.15
22.038,-0.14,0.01,0.05,0.15
22.048,-0.15,0.00,0.05,0.16
22.058,-0.17,0.01,0.01,0.17
22.068,-0.18,0.01,0.01,0.18
22.078,-0.21,-0.01,0.05,0.22
22.088,-0.15,-0.02,0.06,0.17
22.098,-0.12,-0.02,0.05,0.13
22.108,-0.08,0.00,-0.01,0.08
22.118,-0.10,0.03,-0.09,0.14
22.128,-0.12,0.01,-0.08,0.14
22.139,-0.12,0.00,0.01,0.12
22.149,-0.08,-0.02,0.09,0.12
22.159,-0.01,-0.04,0.07,0.08
22.169,-0.02,0.01,-0.06,0.07
22.179,-0.07,0.05,-0.13,0.15
22.189,-0.08,0.02,-0.08,0.11
22.199,-0.10,0.01,0.02,0.10
22.209,-0.08,-0.01,0.06,0.10
22.219,-0.06,-0.02,-0.07,0.09
22.229,-0.09,0.02,-0.19,0.21
22.239,-0.16,0.03,-0.21,0.27
22.249,-0.20,0.02,-0.13,0.24
22.259,-0.20,-0.01,-0.01,0.21
22.269,-0.23,-0.01,0.02,0.23
22.279,-0.22,0.02,-0.05,0.23
22.289,-0.21,0.02,-0.05,0.21
22.299,-0.17,0.03,-0.01,0.18
22.309,-0.15,0.01,-0.02,0.15
22.319,-0.13,0.01,-0.03,0.13
22.329,-0.13,0.01,0.00,0.13
22.339,-0.11,-0.03,0.10,0.15
22.349,-0.12,-0.03,0.21,0.25
22.359,-0.15,-0.05,0.27,0.31
22.369,-0.12,-0.05,0.31,0.34
22.379,-0.10,-0.07,0.31,0.33
22.389,-0.07,-0.06,0.33,0.34
22.399,-0.04,-0.02,0.33,0.33
22.409,-0.03,0.00,0.34,0.34
22.419,-0.08,0.03,0.46,0.47
22.429,-0.13,0.03,0.57,0.59
22.439,-0.18,0.05,0.75,0.77
22.449,-0.37,0.00,0.83,0.91
22.459,-0.28,-0.01,0.99,1.03
22.469,-0.27,0.05,1.15,1.19
22.479,-0.37,0.02,1.35,1.40
22.489,-0.48,-0.03,1.48,1.55
22.499,-0.36,-0.06,1.43,1.48
22.509,-0.22,0.05,1.48,1.49
22.519,-0.34,0.02,1.53,1.56
22.529,-0.25,0.04,1.62,1.64
22.539,-0.17,0.06,1.90,1.91
22.549,0.01,0.07,2.20,2.21
22.559,0.31,0.10,2.28,2.30
22.569,0.59,0.08,2.43,2.51
22.579,0.71,0.23,2.57,2.67
22.589,0.84,0.32,2.46,2.62
22.599,1.17,0.24,2.37,2.65
22.609,1.57,-0.00,2.39,2.85
22.619,1.65,-0.29,2.04,2.64
22.629,1.88,-0.10,1.95,2.71
22.639,2.09,-0.14,1.79,2.76
22.649,2.14,-0.29,1.55,2.65
22.659,2.15,-0.42,1.37,2.58
22.669,2.19,-0.48,1.35,2.62
22.679,2.38,-0.44,0.60,2.49
22.689,2.29,0.21,-0.52,2.36
22.699,1.28,0.72,0.34,1.51
22.709,0.74,0.20,2.05,2.19
22.719,1.28,-0.43,2.48,2.83
22.729,2.04,0.11,1.95,2.82
22.739,1.99,0.35,1.51,2.52
22.749,1.62,0.10,1.45,2.17
22.759,1.33,0.09,1.18,1.78
22.769,1.39,0.27,0.89,1.68
22.779,1.48,0.22,0.88,1.73
22.789,1.37,0.15,0.98,1.69
22.799,1.35,0.21,1.03,1.71
22.809,1.59,0.11,0.99,1.88
22.819,1.67,-0.11,0.65,1.79
22.829,1.73,-0.26,0.63,1.86
22.839,1.78,-0.55,0.73,2.00
22.849,1.84,-0.58,0.91,2.13
22.859,1.90,-0.60,1.12,2.28
22.869,1.90,-0.54,1.06,2.24
22.879,1.77,-0.68,0.85,2.08
22.889,2.09,-0.73,0.47,2.26
22.899,2.38,-0.85,0.24,2.54
22.909,2.29,-0.78,0.21,2.43
22.919,1.68,-0.88,0.16,1.90
22.929,1.07,-0.73,0.59,1.42
22.939,0.82,-0.44,0.81,1.23
22.949,0.63,-0.55,0.23,0.87
22.959,0.07,-0.86,0.10,0.87
22.969,-0.20,-0.79,0.01,0.82
22.979,-0.00,-0.77,-0.14,0.78
22.989,0.55,-1.03,-0.68,1.35
22.999,1.46,-1.27,-2.00,2.78
23.009,1.65,-1.68,-3.07,3.87
23.019,1.10,-1.82,-3.53,4.12
23.029,0.07,-1.76,-3.12,3.58
23.039,-0.90,-1.72,-2.57,3.22
23.049,-1.90,-1.64,-2.79,3.75
23.059,-1.65,-1.62,-3.89,4.53
23.069,-0.63,-1.86,-5.11,5.47
23.079,0.07,-2.23,-5.66,6.08
23.089,0.78,-2.39,-5.71,6.24
23.099,1.25,-2.64,-5.62,6.34
23.109,1.59,-2.86,-5.60,6.49
23.119,2.00,-2.74,-5.59,6.54
23.129,1.40,-2.17,-5.43,6.01
23.139,0.47,-2.18,-4.99,5.46
23.149,0.29,-2.47,-5.07,5.65
23.159,0.03,-2.74,-4.76,5.50
23.169,-0.68,-2.85,-3.00,4.19
23.179,0.52,-1.69,-4.17,4.53
23.189,0.95,-1.90,-3.12,3.77
23.199,-0.04,-1.83,-1.45,2.33
23.209,0.71,-1.19,-3.07,3.37
23.219,0.63,-1.61,-2.86,3.34
23.229,0.66,-3.54,-2.76,4.53
23.239,1.71,-6.61,-3.15,7.51
23.249,0.46,-4.14,-3.30,5.31
23.259,-0.67,-0.87,-1.22,1.64
23.269,1.24,0.73,1.36,1.98
23.279,2.83,0.68,2.50,3.84
23.289,3.70,-0.33,2.86,4.69
23.299,4.83,-1.16,2.91,5.76
23.310,3.89,-0.32,3.49,5.24
23.320,1.32,1.34,4.62,4.99
23.329,0.52,1.64,5.24,5.52
23.339,1.50,1.26,5.66,5.99
23.349,2.15,0.90,6.21,6.63
23.359,1.75,0.92,6.80,7.08
23.369,1.04,1.21,6.22,6.42
23.379,0.34,1.24,5.09,5.25
23.389,-0.11,0.60,3.83,3.88
23.399,-0.91,-0.49,2.84,3.02
23.409,-1.12,-0.66,2.38,2.71
23.419,-1.08,-0.64,2.03,2.39
23.429,-1.07,-0.58,1.63,2.04
23.439,-1.10,-0.70,1.39,1.91
23.449,-1.56,-0.86,1.15,2.12
23.459,-2.57,-0.65,0.47,2.69
23.470,-2.46,-0.79,0.00,2.58
23.479,-2.02,-1.04,-0.09,2.27
23.489,-1.57,-0.94,-0.61,1.93
23.499,-1.22,-0.65,-0.21,1.40
23.510,-0.84,-0.74,-0.13,1.13
23.520,0.09,-0.62,0.00,0.62
23.530,0.54,-0.47,0.41,0.82
23.540,0.66,-0.34,0.46,0.87
23.550,0.77,-0.27,0.35,0.89
23.560,0.76,-0.28,0.47,0.93
23.570,0.58,-0.37,0.73,1.00
23.580,0.28,-0.44,0.81,0.97
23.590,0.10,-0.47,0.94,1.05
23.600,0.15,-0.67,1.26,1.43
23.610,0.39,-0.90,1.70,1.96
23.620,0.65,-1.08,1.68,2.10
23.630,0.75,-1.28,1.34,2.00
23.639,0.53,-1.35,0.81,1.66
23.650,0.15,-1.30,0.26,1.33
23.660,-0.26,-1.25,-0.18,1.29
23.670,-0.57,-1.23,-0.53,1.46
23.680,-0.62,-1.20,-0.66,1.50
23.690,-0.53,-1.09,-0.64,1.37
23.700,-0.46,-0.94,-0.62,1.22
23.710,-0.40,-0.76,-0.57,1.03
23.720,-0.33,-0.62,-0.45,0.83
23.730,-0.31,-0.63,-0.23,0.74
23.740,-0.23,-0.67,0.02,0.70
23.750,-0.09,-0.68,0.21,0.72
23.760,-0.05,-0.65,0.27,0.71
23.770,-0.04,-0.63,0.18,0.65
23.780,-0.03,-0.60,0.05,0.60
23.790,-0.05,-0.60,-0.02,0.60
23.800,-0.05,-0.58,-0.16,0.61
23.810,-0.06,-0.50,-0.26,0.56
23.820,-0.04,-0.46,-0.34,0.57
23.830,-0.05,-0.45,-0.46,0.65
23.840,-0.05,-0.42,-0.55,0.70
23.850,-0.18,-0.46,-0.71,0.86
23.860,-0.38,-0.49,-0.79,1.00
23.870,-0.42,-0.51,-0.90,1.12
23.880,-0.45,-0.39,-0.94,1.11
23.890,-0.54,-0.30,-0.76,0.98
23.900,-0.54,-0.32,-0.37,0.73
23.910,-0.61,-0.15,-0.11,0.64
23.920,-0.55,-0.05,0.08,0.56
23.930,-0.32,-0.14,0.22,0.41
23.940,-0.13,-0.19,0.34,0.41
23.950,-0.06,-0.09,0.42,0.43
23.960,-0.06,-0.06,0.43,0.44
23.970,-0.09,-0.17,0.55,0.58
23.980,-0.15,-0.09,0.76,0.78
23.990,-0.17,-0.11,0.64,0.67
24.000,-0.11,-0.25,0.39,0.47
