time,ax,ay,az,atotal
0.000,0.12,0.26,-0.16,0.33
0.010,-0.02,0.27,-0.22,0.35
0.020,0.03,0.17,-0.18,0.25
0.030,0.02,-0.01,-0.11,0.11
0.040,-0.01,-0.09,-0.02,0.09
0.050,-0.07,-0.07,0.05,0.11
0.060,-0.07,-0.06,0.03,0.10
0.070,-0.05,-0.06,-0.02,0.08
0.080,-0.08,-0.07,0.00,0.11
0.090,-0.09,-0.07,-0.03,0.12
0.100,-0.02,-0.08,-0.04,0.09
0.110,-0.02,-0.08,-0.08,0.11
0.120,-0.01,-0.07,-0.10,0.12
0.130,-0.03,-0.03,-0.10,0.11
0.140,-0.08,0.00,-0.11,0.14
0.150,-0.13,0.06,-0.08,0.17
0.160,-0.13,0.04,-0.08,0.16
0.170,-0.11,-0.05,-0.07,0.14
0.180,-0.05,-0.12,-0.08,0.16
0.190,-0.01,-0.08,-0.14,0.16
0.200,0.01,-0.01,-0.15,0.15
0.210,0.00,0.07,-0.17,0.19
0.220,0.00,0.12,-0.20,0.24
0.230,0.05,0.15,-0.17,0.23
0.240,0.11,0.10,-0.16,0.22
0.250,0.23,0.06,-0.15,0.28
0.260,0.30,0.05,-0.22,0.37
0.270,0.39,0.06,-0.26,0.47
0.280,0.46,-0.04,-0.30,0.55
0.290,0.43,-0.12,-0.30,0.54
0.300,0.22,-0.01,-0.42,0.48
0.310,0.21,0.11,-0.54,0.59
0.320,0.32,0.14,-0.55,0.65
0.330,0.39,0.20,-0.63,0.77
0.340,0.20,0.16,-0.70,0.74
0.350,0.24,0.03,-0.70,0.74
0.360,0.46,-0.09,-0.85,0.98
0.370,-0.05,-0.05,-0.53,0.54
0.380,-0.37,0.13,0.06,0.40
0.390,-0.15,0.21,0.16,0.31
0.400,-0.16,0.05,0.17,0.24
0.410,0.09,-0.20,0.36,0.43
0.420,0.37,-0.45,0.29,0.64
0.430,0.44,-0.64,0.17,0.80
0.440,0.45,-0.80,0.11,0.92
0.450,0.53,-0.71,0.12,0.89
0.460,0.36,-0.60,-0.00,0.70
0.470,0.12,-0.44,-0.01,0.46
0.480,-0.05,-0.14,0.11,0.19
0.490,-0.22,0.04,0.23,0.32
0.500,-0.34,-0.04,0.27,0.44
0.510,-0.23,-0.14,0.29,0.40
0.520,0.02,-0.28,0.24,0.37
0.530,0.07,-0.39,0.10,0.41
0.540,0.18,-0.37,0.09,0.42
0.550,0.26,-0.32,0.05,0.41
0.560,0.27,-0.33,0.04,0.43
0.570,0.37,-0.34,0.06,0.51
0.580,0.52,-0.36,0.02,0.63
0.590,0.65,-0.45,-0.01,0.79
0.600,0.67,-0.49,0.04,0.83
0.610,0.54,-0.48,0.19,0.75
0.620,-0.05,-0.28,0.32,0.42
0.630,-0.65,0.03,0.44,0.79
0.640,-0.66,0.08,0.48,0.82
0.650,-0.30,-0.12,0.50,0.59
0.660,0.03,-0.46,0.54,0.71
0.670,0.26,-0.89,0.55,1.08
0.680,0.60,-1.07,0.56,1.35
0.690,0.91,-1.03,0.50,1.47
0.700,1.03,-0.88,0.44,1.42
0.710,1.41,-0.69,0.30,1.60
0.720,1.59,-0.61,-0.00,1.70
0.730,1.05,-0.68,-0.45,1.33
0.740,-0.32,-0.81,-0.39,0.95
0.750,-0.94,-0.31,-0.03,0.99
0.760,-0.61,0.12,0.33,0.70
0.771,-0.65,0.45,0.63,1.01
0.780,-0.61,0.68,-0.72,1.17
0.791,0.38,0.52,-1.39,1.54
0.800,0.89,0.43,-1.33,1.66
0.811,1.19,-0.06,-1.15,1.65
0.820,0.99,-0.36,-0.73,1.29
0.831,0.45,-0.51,-0.39,0.79
0.841,-0.14,-0.63,0.05,0.65
0.850,-0.62,-0.86,0.30,1.10
0.860,-1.24,-0.97,0.72,1.74
0.870,-1.99,-0.97,0.96,2.41
0.881,-1.27,-0.49,0.98,1.68
0.891,-0.05,0.04,0.65,0.65
0.901,0.23,0.34,0.32,0.52
0.911,0.07,0.35,-0.05,0.36
0.921,0.33,0.22,-0.40,0.56
0.931,0.64,0.09,-0.49,0.81
0.941,0.58,-0.04,-0.53,0.79
0.951,0.61,-0.09,-0.69,0.92
0.960,0.34,-0.20,-0.39,0.56
0.971,-0.21,-0.27,0.10,0.36
0.981,-0.13,-0.21,0.63,0.68
0.991,0.14,-0.11,0.91,0.93
1.001,0.08,-0.24,0.92,0.96
1.011,-0.18,-0.37,0.87,0.96
1.021,-0.32,-0.29,0.77,0.88
1.031,-0.26,-0.13,0.58,0.65
1.041,-0.30,0.04,-0.03,0.30
1.051,-0.45,0.15,-0.75,0.89
1.061,-0.44,0.17,-1.10,1.20
1.071,-0.51,0.15,-0.86,1.01
1.081,-0.44,0.40,-0.37,0.70
1.091,-0.08,0.41,0.02,0.42
1.101,-0.02,0.27,0.30,0.40
1.111,-0.07,0.14,0.39,0.42
1.121,-0.18,0.10,0.32,0.38
1.131,-0.23,0.38,0.31,0.54
1.141,-0.42,0.77,0.40,0.96
1.151,-0.48,0.95,0.54,1.19
1.161,-0.12,0.84,0.68,1.09
1.171,0.01,0.65,0.95,1.15
1.181,-0.33,0.52,1.30,1.44
1.191,-0.72,0.47,1.57,1.79
1.201,-0.76,0.62,1.56,1.84
1.211,-0.82,0.65,1.35,1.71
1.221,-1.02,0.66,1.03,1.60
1.231,-1.11,0.90,0.63,1.56
1.241,-0.86,1.00,0.30,1.35
1.251,-0.48,0.78,0.21,0.93
1.261,-0.28,0.40,0.43,0.65
1.271,0.02,0.09,0.87,0.87
1.281,0.34,-0.07,1.17,1.22
1.291,0.58,-0.12,1.23,1.37
1.301,0.75,-0.03,1.22,1.43
1.311,0.82,0.27,0.90,1.25
1.321,0.68,0.51,0.45,0.96
1.331,0.58,0.64,0.19,0.88
1.341,0.54,0.57,0.35,0.86
1.351,0.40,0.51,0.74,0.99
1.361,-0.04,0.36,1.15,1.21
1.371,-0.34,0.28,1.45,1.52
1.381,-0.50,0.25,1.48,1.58
1.391,-0.88,0.20,1.36,1.63
1.401,-1.42,0.24,1.09,1.81
1.411,-1.51,0.51,0.75,1.76
1.421,-1.56,0.79,0.51,1.82
1.431,-1.92,0.85,0.35,2.13
1.441,-1.98,0.81,0.33,2.16
1.451,-1.69,0.73,0.56,1.92
1.461,-1.80,0.34,0.67,1.95
1.471,-1.86,0.02,0.59,1.95
1.481,-1.75,-0.05,0.39,1.79
1.491,-1.56,0.02,0.22,1.58
1.501,-1.40,0.15,0.35,1.46
1.511,-1.06,0.36,0.38,1.18
1.521,-0.95,0.42,0.36,1.10
1.531,-1.03,0.28,0.48,1.16
1.541,-0.96,0.11,0.66,1.16
1.551,-0.61,-0.07,0.70,0.93
1.561,-0.27,-0.21,0.54,0.64
1.571,0.00,-0.31,0.43,0.53
1.581,0.38,-0.15,0.59,0.72
1.591,0.82,0.18,0.77,1.14
1.601,1.08,0.44,0.87,1.46
1.611,1.14,0.49,1.10,1.66
1.621,1.14,0.33,1.17,1.67
1.631,1.40,0.23,0.97,1.72
1.641,1.44,0.34,0.73,1.64
1.651,1.23,0.46,0.38,1.37
1.661,1.08,0.54,0.14,1.22
1.671,0.79,0.56,0.11,0.97
1.681,0.19,0.37,0.33,0.53
1.691,-0.12,0.15,0.48,0.52
1.701,-0.22,0.34,0.63,0.75
1.711,-0.35,0.53,0.59,0.87
1.721,-0.60,0.59,0.65,1.06
1.731,-0.70,0.64,0.71,1.19
1.741,-0.80,0.56,0.74,1.22
1.751,-1.01,0.40,0.95,1.44
1.761,-0.83,0.23,1.17,1.45
1.771,-0.41,0.04,1.11,1.18
1.781,-0.18,0.12,0.94,0.96
1.791,-0.21,0.41,0.74,0.87
1.801,-0.25,0.59,0.47,0.80
1.811,-0.21,0.63,0.25,0.71
1.821,-0.03,0.47,0.13,0.48
1.831,0.24,0.13,0.12,0.30
1.841,0.56,-0.05,0.20,0.60
1.851,0.85,-0.05,0.34,0.91
1.861,0.97,0.12,0.24,1.01
1.871,0.87,0.27,0.04,0.91
1.881,0.64,0.32,0.06,0.72
1.891,0.25,0.39,0.41,0.62
1.901,-0.17,0.47,0.98,1.10
1.911,-0.37,0.42,1.48,1.58
1.921,-0.40,0.09,1.61,1.66
1.931,0.10,0.15,1.53,1.54
1.941,0.30,0.44,1.08,1.20
1.951,0.23,0.59,0.44,0.78
1.961,0.47,0.64,0.11,0.80
1.971,0.50,0.53,0.15,0.75
1.981,0.23,0.44,0.32,0.59
1.991,0.10,0.32,0.36,0.49
2.001,-0.13,0.36,0.27,0.47
2.011,-0.42,0.40,0.16,0.60
2.021,-0.69,0.38,0.08,0.79
2.031,-0.96,0.39,0.17,1.05
2.041,-1.26,0.42,0.30,1.36
2.051,-1.24,0.34,0.24,1.31
2.061,-1.04,0.16,0.12,1.06
2.071,-0.75,0.23,0.04,0.78
2.082,-0.51,0.35,-0.07,0.62
2.091,-0.35,0.28,-0.11,0.46
2.101,-0.19,0.24,-0.04,0.31
2.111,-0.11,0.28,0.11,0.32
2.121,0.06,0.31,0.24,0.40
2.131,0.25,0.28,0.41,0.55
2.141,0.40,0.29,0.52,0.71
2.151,0.33,0.30,0.50,0.67
2.161,0.10,0.29,0.44,0.53
2.171,-0.16,0.27,0.31,0.44
2.181,-0.42,0.22,0.19,0.51
2.191,-0.45,0.19,0.22,0.54
2.201,-0.32,0.24,0.26,0.48
2.211,-0.27,0.29,0.28,0.48
2.221,-0.30,0.29,0.33,0.53
2.231,-0.34,0.11,0.43,0.56
2.241,-0.38,-0.21,0.53,0.69
2.251,-0.25,-0.11,0.42,0.50
2.261,-0.13,0.27,0.02,0.30
2.272,-0.14,0.53,-0.28,0.61
2.281,-0.21,0.63,-0.22,0.70
2.292,-0.33,0.58,-0.01,0.67
2.302,-0.26,0.47,0.16,0.56
2.312,-0.40,0.31,0.26,0.57
2.322,-0.35,0.27,0.22,0.49
2.332,-0.03,0.29,0.17,0.34
2.342,0.09,0.17,0.13,0.23
2.352,0.08,0.11,0.35,0.37
2.362,-0.10,0.30,0.70,0.77
2.372,-0.37,0.54,0.76,1.01
2.382,-0.49,0.53,0.56,0.91
2.392,-0.11,0.34,0.26,0.44
2.402,0.31,0.05,0.06,0.32
2.412,0.61,-0.16,0.14,0.64
2.422,0.64,-0.01,0.16,0.66
2.432,0.30,0.06,0.24,0.39
2.442,-0.03,-0.02,0.35,0.35
2.452,-0.24,-0.07,0.37,0.44
2.462,-0.50,0.09,0.40,0.65
2.472,-0.61,0.50,0.27,0.83
2.482,-0.22,0.62,-0.06,0.66
2.492,0.10,0.52,-0.22,0.58
2.502,-0.00,0.38,-0.01,0.38
2.512,-0.20,0.54,0.33,0.66
2.522,-0.32,0.82,0.66,1.10
2.532,-0.29,0.93,0.81,1.27
2.542,-0.12,0.84,0.80,1.17
2.552,0.21,0.68,0.45,0.84
2.562,0.39,0.49,0.18,0.65
2.572,0.48,0.34,-0.05,0.59
2.582,0.37,0.29,-0.14,0.49
2.592,0.06,0.35,-0.01,0.36
2.602,-0.24,0.49,0.11,0.56
2.612,-0.45,0.41,-0.01,0.60
2.622,-0.54,0.23,-0.37,0.69
2.632,-0.47,0.16,-0.78,0.93
2.642,-0.34,0.19,-0.84,0.93
2.652,-0.05,0.24,-0.74,0.78
2.662,-0.01,0.24,-0.50,0.56
2.672,-0.19,0.23,-0.28,0.41
2.682,-0.75,0.41,-0.82,1.18
2.692,-0.85,0.20,-1.33,1.59
2.702,-0.38,-0.35,-1.23,1.33
2.712,0.09,-0.81,-0.14,0.83
2.722,0.17,-0.75,1.05,1.30
2.732,-0.01,-0.51,1.94,2.01
2.742,-0.05,-0.38,2.27,2.30
2.752,0.11,-0.26,1.68,1.70
2.762,0.18,0.01,0.93,0.94
2.772,0.39,0.10,0.35,0.53
2.782,0.55,0.06,0.12,0.56
2.792,0.28,0.07,0.15,0.33
2.802,-0.74,0.11,-0.05,0.75
2.812,-1.20,0.13,-0.16,1.22
2.822,-0.22,0.22,0.09,0.32
2.832,0.12,0.20,0.22,0.33
2.842,0.01,0.14,0.03,0.15
2.852,0.06,0.17,-0.09,0.20
2.862,0.07,0.24,-0.13,0.29
2.872,0.18,0.26,-0.20,0.37
2.882,0.08,0.20,-0.07,0.23
2.892,-0.16,0.22,0.19,0.33
2.902,-0.45,0.23,0.48,0.70
2.912,-0.59,0.10,0.51,0.79
2.922,-0.47,0.07,0.40,0.62
2.932,-0.32,0.05,0.18,0.37
2.942,-0.27,0.10,0.02,0.29
2.952,-0.17,0.26,-0.07,0.32
2.962,-0.07,0.50,-0.17,0.53
2.972,0.06,0.69,-0.32,0.76
2.982,0.10,0.70,-0.16,0.73
2.992,0.16,0.68,0.17,0.72
3.002,0.11,0.49,0.24,0.56
3.012,-0.03,0.32,0.16,0.36
3.022,-0.06,0.48,0.05,0.48
3.032,-0.12,0.72,0.00,0.73
3.042,-0.19,0.70,0.09,0.73
3.052,-0.11,0.58,0.19,0.62
3.062,0.06,0.41,0.27,0.49
3.072,0.20,0.36,0.29,0.51
3.082,0.17,0.33,0.21,0.42
3.092,0.08,0.27,0.20,0.35
3.102,0.01,0.36,0.26,0.45
3.112,-0.06,0.50,0.27,0.57
3.122,-0.14,0.46,0.30,0.57
3.132,-0.14,0.27,0.36,0.47
3.142,-0.04,0.20,0.35,0.40
3.152,-0.05,0.09,0.25,0.27
3.162,-0.02,-0.02,0.26,0.26
3.172,0.01,-0.00,0.26,0.26
3.182,-0.02,0.05,0.17,0.18
3.192,-0.05,0.09,0.07,0.13
3.202,-0.10,0.09,-0.01,0.14
3.212,-0.19,0.05,-0.03,0.20
3.222,-0.24,-0.01,0.08,0.26
3.232,-0.30,0.03,0.25,0.39
3.242,-0.27,0.10,0.30,0.42
3.252,-0.35,-0.07,0.25,0.43
3.262,-0.37,-0.32,0.24,0.54
3.272,-0.22,-0.31,0.20,0.43
3.282,-0.05,-0.08,0.13,0.16
3.292,0.02,0.12,0.16,0.20
3.302,-0.02,0.17,0.16,0.24
3.312,-0.10,0.13,0.18,0.24
3.322,-0.12,0.09,0.19,0.24
3.332,-0.21,-0.03,0.13,0.25
3.342,-0.30,-0.22,0.06,0.38
3.352,-0.21,-0.17,0.15,0.31
3.362,-0.05,0.09,0.18,0.21
3.372,-0.00,0.32,0.10,0.34
3.382,-0.04,0.40,0.07,0.41
3.392,-0.10,0.34,0.15,0.38
3.402,-0.18,0.30,0.19,0.39
3.412,-0.26,0.33,0.14,0.44
3.422,-0.37,0.24,0.13,0.46
3.432,-0.38,0.17,0.25,0.49
3.442,-0.27,0.26,0.30,0.48
3.452,-0.13,0.34,0.21,0.43
3.462,-0.04,0.30,0.26,0.40
3.472,0.03,0.21,0.32,0.38
3.482,0.07,0.10,0.39,0.41
3.492,0.03,-0.02,0.46,0.46
3.502,-0.08,-0.00,0.11,0.14
3.512,-0.12,0.16,-0.10,0.22
3.522,0.03,0.25,-0.06,0.26
3.532,0.04,0.19,0.09,0.22
3.542,0.06,0.11,0.18,0.22
3.552,-0.03,0.08,0.19,0.21
3.562,-0.14,0.08,0.20,0.26
3.572,-0.28,0.13,0.15,0.35
3.582,-0.31,0.11,0.15,0.36
3.592,-0.22,0.12,0.13,0.28
3.602,-0.12,0.16,0.10,0.22
3.612,-0.07,0.16,0.19,0.26
3.622,-0.08,0.19,0.20,0.29
3.633,-0.11,0.15,0.11,0.22
3.642,-0.09,0.09,0.00,0.13
3.652,-0.07,0.11,-0.04,0.13
3.662,-0.12,0.12,0.01,0.17
3.673,-0.20,0.10,0.13,0.26
3.682,-0.18,0.10,0.15,0.26
3.693,-0.10,0.13,0.13,0.21
3.703,-0.12,0.15,0.11,0.22
3.713,-0.16,0.13,0.14,0.25
3.723,-0.12,0.07,0.12,0.18
3.733,-0.09,0.06,0.08,0.14
3.743,-0.09,0.01,0.12,0.15
3.753,-0.10,0.01,0.14,0.18
3.762,-0.15,0.09,0.06,0.18
3.773,-0.23,0.12,-0.01,0.26
3.783,-0.27,0.06,-0.02,0.27
3.793,-0.27,0.03,-0.00,0.27
3.803,-0.22,0.05,0.04,0.23
3.813,-0.15,0.04,0.13,0.20
3.823,-0.07,0.01,0.22,0.23
3.833,-0.05,0.02,0.25,0.25
3.843,-0.09,0.05,0.19,0.21
3.853,-0.09,0.07,0.15,0.19
3.863,-0.07,0.07,0.17,0.20
3.873,0.00,0.06,0.31,0.32
3.883,-0.01,0.07,0.34,0.35
3.893,-0.05,0.07,0.30,0.31
3.903,-0.05,0.09,0.21,0.23
3.913,-0.08,0.15,0.16,0.23
3.923,-0.13,0.23,0.13,0.30
3.933,-0.13,0.23,0.16,0.31
3.943,-0.02,0.18,0.20,0.27
3.953,0.08,0.16,0.23,0.29
3.963,0.15,0.17,0.21,0.31
3.973,0.14,0.13,0.20,0.27
3.981,0.12,0.13,0.20,0.27
3.991,0.01,0.23,0.17,0.29
4.001,-0.09,0.26,0.12,0.29
4.011,-0.12,0.17,0.05,0.21
4.021,-0.07,0.15,-0.00,0.16
4.031,0.00,0.19,-0.08,0.21
4.041,0.03,0.22,-0.08,0.23
4.052,0.00,0.18,-0.01,0.18
4.062,-0.01,0.19,-0.01,0.19
4.071,-0.09,0.21,-0.01,0.23
4.081,-0.21,0.20,-0.01,0.29
4.091,-0.24,0.16,-0.09,0.30
4.101,-0.27,0.24,-0.26,0.44
4.111,-0.31,0.27,-0.14,0.43
4.122,-0.29,0.22,-0.13,0.38
4.131,-0.27,0.15,-0.19,0.36
4.142,-0.28,0.05,-0.13,0.31
4.151,-0.28,0.00,-0.16,0.32
4.162,-0.22,0.03,-0.29,0.37
4.172,-0.14,0.07,-0.38,0.41
4.182,-0.07,0.06,-0.19,0.21
4.192,-0.07,0.01,0.05,0.08
4.202,-0.10,0.01,0.07,0.12
4.212,-0.22,0.00,-0.04,0.23
4.222,-0.31,-0.03,-0.09,0.32
4.232,-0.29,-0.12,-0.01,0.31
4.242,-0.15,-0.12,0.07,0.21
4.251,0.03,-0.02,0.04,0.05
4.262,0.12,0.05,-0.01,0.13
4.272,0.13,0.01,0.03,0.13
4.282,0.07,-0.05,0.09,0.13
4.292,-0.01,-0.05,0.11,0.12
4.302,-0.11,-0.03,0.11,0.16
4.312,-0.17,-0.04,0.13,0.22
4.322,-0.19,-0.07,0.13,0.24
4.332,-0.14,-0.06,0.07,0.17
4.342,-0.07,-0.02,-0.07,0.10
4.354,-0.01,-0.01,-0.11,0.12
4.364,0.04,-0.04,0.05,0.07
4.374,0.04,-0.07,0.21,0.22
4.384,-0.04,-0.10,0.22,0.25
4.394,-0.11,-0.11,0.19,0.25
4.404,-0.14,-0.17,0.14,0.26
4.414,-0.20,-0.20,0.09,0.30
4.424,-0.27,-0.14,0.09,0.31
4.434,-0.21,-0.01,0.05,0.21
4.444,-0.16,0.09,-0.06,0.20
4.454,-0.10,0.07,-0.07,0.14
4.464,-0.05,0.06,0.00,0.08
4.474,-0.06,0.04,0.15,0.17
4.484,-0.03,0.10,0.22,0.24
4.494,-0.08,0.17,0.22,0.29
4.504,-0.10,0.23,0.24,0.35
4.514,-0.09,0.24,0.20,0.33
4.524,-0.08,0.19,0.13,0.25
4.534,-0.10,0.18,0.05,0.22
4.544,-0.11,0.18,-0.01,0.22
4.554,-0.13,0.20,-0.07,0.25
4.564,-0.17,0.18,-0.08,0.26
4.574,-0.18,0.15,-0.05,0.24
4.585,-0.17,0.16,-0.09,0.25
4.594,-0.17,0.14,-0.09,0.24
4.604,-0.13,0.09,-0.06,0.17
4.614,-0.12,0.07,-0.04,0.15
4.624,-0.11,0.06,-0.05,0.14
4.634,-0.11,0.06,-0.07,0.14
4.644,-0.14,0.06,-0.12,0.19
4.654,-0.17,0.03,-0.06,0.18
4.664,-0.21,-0.03,-0.06,0.22
4.674,-0.16,-0.01,-0.07,0.18
4.684,-0.10,0.06,-0.06,0.13
4.694,-0.13,0.05,-0.06,0.15
4.704,-0.13,0.02,0.01,0.14
4.714,-0.14,-0.03,0.11,0.18
4.725,-0.16,-0.08,0.10,0.21
4.734,-0.21,-0.11,0.10,0.26
4.745,-0.24,-0.06,0.11,0.27
4.755,-0.27,-0.02,0.08,0.29
4.764,-0.23,0.05,0.09,0.26
4.774,-0.14,0.03,0.05,0.15
4.784,-0.06,0.02,0.02,0.06
4.794,-0.03,0.03,0.08,0.09
4.804,-0.03,0.03,0.10,0.11
4.815,-0.09,-0.00,0.09,0.13
4.824,-0.11,0.05,0.06,0.14
4.834,-0.05,0.12,-0.04,0.13
4.845,-0.01,0.15,-0.02,0.15
4.855,0.02,0.17,0.04,0.18
4.864,-0.04,0.17,0.01,0.17
4.874,-0.12,0.17,-0.01,0.21
4.885,-0.17,0.17,-0.05,0.25
4.895,-0.21,0.15,-0.08,0.27
4.905,-0.23,0.16,-0.11,0.30
4.915,-0.17,0.15,-0.20,0.30
4.925,-0.09,0.13,-0.10,0.19
4.935,-0.04,0.15,0.01,0.15
4.945,-0.07,0.14,0.03,0.16
4.955,-0.14,0.10,0.07,0.18
4.964,-0.15,0.05,0.05,0.16
4.975,-0.16,0.06,-0.03,0.17
4.985,-0.13,0.14,-0.06,0.19
4.995,-0.01,0.19,0.07,0.20
5.005,0.03,0.16,0.18,0.24
5.015,0.07,0.05,0.19,0.20
5.025,0.03,-0.04,0.28,0.28
5.035,-0.05,-0.10,0.40,0.41
5.045,-0.07,-0.15,0.45,0.47
5.055,0.02,-0.12,0.36,0.38
5.065,0.13,-0.05,0.19,0.23
5.075,0.22,0.00,0.01,0.22
5.085,0.18,-0.01,-0.04,0.19
5.095,-0.10,-0.09,-0.03,0.13
5.105,-0.26,-0.11,-0.08,0.29
5.115,-0.35,-0.09,-0.10,0.37
5.125,-0.38,-0.07,-0.09,0.39
5.135,-0.39,-0.07,-0.09,0.41
5.145,-0.31,-0.05,-0.07,0.33
5.155,-0.19,-0.00,-0.05,0.20
5.165,-0.05,0.06,-0.12,0.15
5.175,0.04,0.08,-0.01,0.09
5.185,0.02,0.08,0.16,0.18
5.195,-0.06,0.12,0.10,0.17
5.205,-0.15,0.20,-0.01,0.25
5.215,-0.19,0.21,-0.05,0.28
5.225,-0.20,0.25,-0.09,0.34
5.235,-0.19,0.27,-0.15,0.36
5.245,-0.17,0.24,-0.20,0.36
5.255,-0.12,0.18,-0.19,0.29
5.265,-0.18,0.13,-0.17,0.28
5.275,-0.21,0.12,-0.16,0.29
5.285,-0.19,0.14,-0.15,0.28
5.295,-0.16,0.16,-0.18,0.29
5.305,-0.14,0.12,-0.17,0.25
5.315,-0.08,0.09,-0.09,0.15
5.325,-0.03,0.12,-0.03,0.13
5.335,-0.06,0.15,-0.04,0.17
5.345,-0.13,0.09,-0.08,0.17
5.355,-0.19,0.05,-0.12,0.23
5.365,-0.16,0.05,-0.13,0.21
5.375,-0.11,0.10,-0.13,0.20
5.385,-0.08,0.07,-0.06,0.12
5.395,-0.06,0.03,0.02,0.07
5.405,-0.06,0.02,0.04,0.08
5.415,-0.07,0.02,0.04,0.08
5.425,-0.09,0.03,0.03,0.10
5.435,-0.10,0.03,0.02,0.11
5.445,-0.10,0.05,0.05,0.12
5.455,-0.08,0.07,0.04,0.12
5.465,-0.09,0.07,0.02,0.12
5.475,-0.09,0.08,0.04,0.13
5.485,-0.10,0.06,0.07,0.14
5.495,-0.10,0.06,0.08,0.15
5.505,-0.08,0.05,0.09,0.12
5.515,-0.08,0.02,0.14,0.16
5.525,-0.04,0.02,0.18,0.19
5.535,-0.01,0.02,0.16,0.16
5.545,-0.01,0.04,0.06,0.07
5.555,-0.01,0.09,0.03,0.09
5.565,-0.05,0.07,-0.01,0.09
5.575,-0.12,0.02,0.03,0.13
5.585,-0.16,0.00,0.10,0.19
5.595,-0.16,0.02,0.11,0.19
5.605,-0.15,0.07,0.09,0.18
5.615,-0.11,0.09,0.05,0.15
5.625,-0.08,0.04,0.09,0.13
5.635,-0.08,-0.00,0.14,0.16
5.646,-0.16,-0.03,0.10,0.19
5.655,-0.14,-0.00,0.02,0.14
5.665,-0.09,0.03,0.01,0.10
5.675,-0.08,0.03,0.03,0.09
5.685,-0.07,0.01,0.01,0.07
5.695,-0.09,-0.00,-0.03,0.09
5.705,-0.15,-0.00,-0.12,0.20
5.715,-0.17,0.01,-0.24,0.30
5.725,-0.22,0.02,-0.13,0.26
5.735,-0.21,-0.01,-0.06,0.21
5.745,-0.23,0.01,-0.17,0.29
5.755,-0.29,0.03,-0.03,0.29
5.765,-0.28,-0.00,-0.00,0.28
5.775,-0.28,0.00,-0.10,0.29
5.785,-0.27,0.02,-0.15,0.31
5.795,-0.23,0.04,-0.07,0.25
5.805,-0.18,0.06,-0.02,0.19
5.815,-0.15,0.07,-0.09,0.19
5.825,-0.14,0.07,-0.11,0.19
5.835,-0.09,0.05,-0.07,0.12
5.845,-0.00,0.02,0.01,0.03
5.855,0.01,0.00,0.08,0.08
5.865,-0.00,-0.01,0.09,0.09
5.875,-0.03,0.02,0.08,0.09
5.885,-0.09,0.04,0.00,0.10
5.895,-0.10,0.08,-0.09,0.15
5.905,-0.09,0.08,-0.13,0.18
5.915,-0.12,0.08,-0.11,0.18
5.925,-0.14,0.08,-0.10,0.19
5.935,-0.15,0.08,-0.06,0.18
5.945,-0.12,0.09,0.02,0.15
5.955,-0.11,0.07,0.08,0.15
5.965,-0.10,0.01,0.10,0.14
5.975,-0.11,-0.05,0.06,0.14
5.985,-0.07,-0.07,0.14,0.17
5.995,-0.03,-0.03,0.20,0.20
6.005,0.00,0.04,0.09,0.10
6.015,0.04,0.02,-0.02,0.05
6.025,-0.02,-0.01,-0.08,0.09
6.035,-0.07,-0.01,-0.19,0.21
6.045,-0.10,0.03,-0.16,0.19
6.055,-0.12,0.08,0.00,0.14
6.065,-0.14,0.10,0.08,0.19
6.075,-0.14,0.09,0.12,0.20
6.085,-0.15,0.05,0.14,0.21
6.096,-0.14,0.04,0.09,0.17
6.105,-0.06,0.04,0.09,0.11
6.115,-0.03,0.05,0.06,0.09
6.125,-0.04,0.04,0.06,0.08
6.135,-0.08,0.03,0.01,0.08
6.145,-0.11,0.02,-0.08,0.14
6.155,-0.16,0.03,-0.13,0.20
6.165,-0.14,0.03,-0.13,0.19
6.175,-0.12,0.06,-0.11,0.18
6.185,-0.08,0.07,-0.02,0.11
6.196,-0.08,0.06,0.02,0.10
6.206,-0.13,0.02,-0.02,0.14
6.215,-0.15,0.03,-0.04,0.16
6.226,-0.13,0.01,-0.05,0.14
6.235,-0.10,0.02,-0.08,0.13
6.246,-0.08,0.05,-0.12,0.16
6.256,-0.13,0.07,-0.14,0.21
6.265,-0.17,0.03,-0.12,0.21
6.276,-0.20,-0.00,-0.08,0.21
6.286,-0.20,-0.00,-0.08,0.21
6.296,-0.18,-0.02,-0.05,0.19
6.306,-0.14,-0.03,-0.00,0.14
6.316,-0.08,-0.03,0.03,0.09
6.326,-0.04,0.01,0.02,0.04
6.336,-0.03,0.02,-0.00,0.04
6.346,-0.06,0.00,-0.04,0.07
6.356,-0.07,-0.01,-0.05,0.09
6.366,-0.11,-0.02,-0.02,0.11
6.376,-0.12,-0.00,0.03,0.13
6.386,-0.15,0.00,0.03,0.15
6.396,-0.11,-0.01,-0.00,0.12
6.406,-0.11,-0.03,0.00,0.12
6.416,-0.10,0.03,0.03,0.11
6.426,-0.06,0.07,0.06,0.11
6.436,-0.03,0.06,0.09,0.11
6.446,-0.04,-0.02,0.06,0.07
6.456,-0.11,-0.04,-0.00,0.12
6.466,-0.14,0.04,-0.08,0.17
6.476,-0.15,0.10,-0.16,0.24
6.486,-0.16,0.08,-0.17,0.24
6.496,-0.15,0.03,-0.08,0.17
6.506,-0.11,0.01,0.03,0.11
6.516,-0.07,0.01,0.07,0.11
6.526,-0.07,0.04,0.12,0.15
6.536,-0.05,0.05,0.13,0.15
6.546,-0.02,0.08,0.06,0.10
6.556,0.01,0.13,-0.04,0.14
6.566,-0.04,0.12,-0.14,0.19
6.576,-0.12,0.11,-0.16,0.23
6.586,-0.11,0.08,0.03,0.14
6.596,-0.07,0.04,0.08,0.11
6.606,-0.16,0.02,0.06,0.17
6.616,-0.18,0.02,0.07,0.19
6.626,-0.15,0.06,-0.01,0.16
6.636,-0.16,0.10,-0.14,0.23
6.646,-0.11,0.12,-0.17,0.23
6.656,-0.08,0.08,-0.05,0.12
6.666,-0.06,0.01,0.08,0.10
6.676,-0.08,-0.03,0.09,0.12
6.686,-0.11,-0.03,0.02,0.11
6.696,-0.08,-0.03,0.02,0.09
6.706,-0.03,-0.08,0.06,0.10
6.716,-0.04,-0.10,0.09,0.14
6.726,-0.09,-0.12,0.10,0.18
6.736,-0.12,-0.08,0.05,0.15
6.746,-0.16,-0.03,0.00,0.16
6.756,-0.17,0.00,-0.05,0.17
6.766,-0.21,0.04,-0.04,0.21
6.776,-0.22,0.04,-0.01,0.23
6.786,-0.21,0.02,0.01,0.21
6.796,-0.16,0.01,0.02,0.17
6.806,-0.12,0.01,0.03,0.12
6.816,-0.15,0.03,0.04,0.16
6.826,-0.13,0.08,0.01,0.15
6.836,-0.10,0.09,-0.03,0.13
6.846,-0.11,0.05,0.02,0.13
6.856,-0.06,0.06,0.03,0.09
6.866,-0.04,0.09,-0.08,0.13
6.876,-0.05,0.10,-0.17,0.20
6.886,-0.02,0.12,-0.16,0.20
6.896,-0.07,0.09,-0.08,0.14
6.906,-0.06,0.08,-0.01,0.10
6.916,-0.06,0.05,0.03,0.08
6.926,-0.11,0.03,-0.01,0.11
6.936,-0.13,0.01,-0.03,0.14
6.946,-0.15,0.01,0.01,0.15
6.956,-0.16,0.01,0.02,0.16
6.966,-0.17,0.01,0.03,0.17
6.976,-0.13,-0.00,0.05,0.14
6.986,-0.12,0.03,-0.01,0.12
6.996,-0.16,0.03,-0.04,0.17
7.006,-0.13,0.04,0.02,0.14
7.016,-0.14,0.01,0.02,0.14
7.026,-0.16,-0.00,0.03,0.17
7.036,-0.18,0.01,0.04,0.18
7.046,-0.16,0.01,0.01,0.16
7.056,-0.16,-0.01,0.02,0.17
7.066,-0.17,-0.03,0.05,0.18
7.076,-0.16,-0.04,0.11,0.20
7.086,-0.12,-0.02,0.14,0.19
7.096,-0.15,-0.03,0.10,0.19
7.106,-0.11,0.05,0.07,0.14
7.116,-0.12,0.05,0.02,0.13
7.126,-0.14,0.02,-0.01,0.15
7.136,-0.11,0.01,-0.04,0.12
7.146,-0.07,0.03,0.02,0.08
7.156,-0.09,0.02,0.01,0.10
7.166,-0.13,-0.01,-0.02,0.14
7.176,-0.09,-0.01,-0.00,0.09
7.186,0.00,-0.01,-0.01,0.01
7.196,-0.02,-0.02,0.01,0.03
7.206,-0.02,-0.02,0.09,0.10
7.216,-0.06,0.02,0.09,0.11
7.226,-0.10,0.04,0.03,0.11
7.236,-0.11,0.07,0.02,0.13
7.246,-0.12,0.04,0.03,0.13
7.256,-0.05,0.03,0.07,0.09
7.266,-0.04,-0.00,0.11,0.12
7.276,-0.09,-0.04,0.08,0.12
7.286,-0.14,-0.04,0.01,0.15
7.296,-0.16,-0.03,-0.02,0.16
7.306,-0.14,-0.00,-0.04,0.15
7.316,-0.14,-0.00,-0.06,0.15
7.326,-0.14,0.00,-0.01,0.14
7.336,-0.10,-0.02,0.04,0.11
7.346,-0.08,-0.02,0.07,0.10
7.356,-0.12,-0.01,0.02,0.12
7.366,-0.17,0.00,-0.05,0.18
7.376,-0.18,0.00,-0.09,0.20
7.386,-0.17,-0.01,-0.06,0.18
7.396,-0.14,0.00,-0.08,0.16
7.406,-0.09,0.04,-0.09,0.14
7.416,-0.10,0.04,-0.05,0.12
7.426,-0.12,0.03,0.02,0.13
7.436,-0.09,-0.02,-0.04,0.10
7.446,-0.11,-0.02,-0.12,0.16
7.456,-0.11,-0.02,-0.20,0.23
7.466,-0.08,0.00,-0.13,0.15
7.476,-0.09,-0.00,0.08,0.12
7.486,-0.22,-0.02,0.05,0.22
7.496,-0.27,0.01,0.00,0.27
7.506,-0.30,0.07,-0.09,0.32
7.516,-0.28,0.09,-0.13,0.32
7.526,-0.18,0.05,-0.03,0.18
7.536,-0.16,0.03,0.12,0.20
7.546,-0.11,0.03,0.11,0.16
7.556,-0.01,0.07,0.01,0.08
7.566,0.03,0.01,-0.01,0.03
7.576,0.01,-0.04,0.09,0.10
7.586,0.03,-0.06,0.16,0.18
7.596,0.02,-0.03,0.10,0.11
7.606,-0.01,-0.04,0.06,0.08
7.616,-0.11,-0.05,0.02,0.12
7.627,-0.23,-0.05,-0.06,0.25
7.637,-0.27,-0.03,-0.10,0.29
7.646,-0.27,-0.01,-0.12,0.30
7.657,-0.23,0.01,-0.11,0.25
7.667,-0.13,-0.00,-0.05,0.14
7.677,-0.05,-0.01,-0.01,0.05
7.687,-0.03,0.01,0.00,0.03
7.697,-0.01,0.02,0.03,0.04
7.707,-0.02,0.03,-0.00,0.04
7.717,-0.06,-0.01,-0.06,0.09
7.727,-0.11,-0.06,0.07,0.15
7.737,-0.12,-0.06,0.09,0.16
7.747,-0.14,0.01,0.01,0.15
7.757,-0.16,0.06,-0.04,0.18
7.767,-0.11,0.02,-0.03,0.12
7.777,-0.13,0.01,0.00,0.13
7.787,-0.15,0.04,-0.01,0.16
7.797,-0.17,0.11,-0.09,0.22
7.807,-0.14,0.14,-0.08,0.22
7.817,-0.08,0.12,-0.07,0.16
7.827,-0.06,0.11,-0.09,0.16
7.837,-0.08,0.06,-0.03,0.11
7.847,-0.09,0.05,0.07,0.12
7.857,-0.11,0.03,0.07,0.14
7.867,-0.12,0.03,0.03,0.12
7.877,-0.13,0.01,0.02,0.13
7.887,-0.10,-0.03,0.01,0.11
7.897,-0.06,-0.00,0.01,0.06
7.907,-0.05,0.04,0.00,0.06
7.917,-0.09,0.05,0.01,0.11
7.927,-0.12,0.04,-0.02,0.12
7.937,-0.14,0.01,-0.06,0.16
7.947,-0.13,-0.01,-0.02,0.13
7.957,-0.10,-0.02,-0.00,0.10
7.967,-0.05,-0.05,-0.01,0.07
7.978,-0.05,-0.06,-0.02,0.08
7.984,-0.08,-0.07,-0.03,0.11
7.994,-0.12,-0.05,-0.02,0.13
8.004,-0.14,-0.03,-0.01,0.14
8.014,-0.16,-0.04,-0.05,0.18
8.024,-0.13,-0.02,-0.05,0.14
8.034,-0.13,0.00,-0.05,0.14
8.044,-0.11,0.03,-0.05,0.12
8.054,-0.11,0.02,-0.05,0.12
8.064,-0.14,0.02,-0.01,0.14
8.074,-0.14,0.01,-0.03,0.14
8.084,-0.11,0.00,-0.04,0.12
8.094,-0.09,-0.00,0.01,0.09
8.104,-0.05,0.00,0.04,0.07
8.114,-0.05,0.02,0.02,0.06
8.124,-0.05,0.02,-0.03,0.06
8.134,-0.06,-0.01,-0.06,0.09
8.144,-0.07,-0.01,-0.04,0.08
8.154,-0.05,-0.03,-0.04,0.07
8.164,-0.07,0.00,-0.05,0.09
8.174,-0.14,0.02,-0.05,0.15
8.184,-0.15,-0.00,-0.06,0.16
8.194,-0.17,0.01,-0.05,0.17
8.204,-0.18,0.02,-0.00,0.18
8.214,-0.14,0.06,-0.03,0.15
8.224,-0.12,0.06,-0.03,0.14
8.235,-0.09,0.05,-0.02,0.11
8.245,-0.07,0.06,0.01,0.09
8.254,-0.07,0.04,0.03,0.08
8.265,-0.09,0.04,0.03,0.10
8.275,-0.10,0.01,0.03,0.10
8.285,-0.13,0.01,-0.02,0.13
8.295,-0.11,0.03,-0.14,0.18
8.304,-0.12,0.02,-0.16,0.20
8.315,-0.06,-0.00,0.07,0.09
8.324,-0.03,-0.02,0.01,0.03
8.334,-0.07,-0.01,-0.02,0.08
8.345,-0.13,0.02,0.05,0.14
8.354,-0.18,0.01,-0.01,0.18
8.365,-0.19,-0.02,-0.10,0.22
8.374,-0.18,-0.01,-0.08,0.20
8.384,-0.13,0.04,0.01,0.14
8.395,-0.12,0.04,0.04,0.13
8.405,-0.13,0.03,0.01,0.13
8.415,-0.11,0.01,-0.03,0.11
8.425,-0.06,-0.01,-0.01,0.06
8.434,-0.04,-0.04,0.04,0.07
8.445,-0.03,-0.05,0.06,0.08
8.454,0.01,-0.02,0.01,0.02
8.465,-0.03,0.00,-0.03,0.04
8.475,-0.07,0.00,-0.02,0.07
8.485,-0.14,0.01,-0.02,0.14
8.495,-0.18,0.01,-0.06,0.19
8.505,-0.20,0.03,-0.07,0.21
8.515,-0.20,0.06,-0.09,0.23
8.525,-0.13,0.06,-0.08,0.17
8.535,-0.07,0.06,-0.03,0.10
8.545,-0.01,0.04,-0.04,0.05
8.555,0.05,0.02,-0.04,0.07
8.564,0.02,-0.01,-0.08,0.09
8.575,-0.08,-0.03,-0.04,0.09
8.585,-0.17,0.00,0.07,0.18
8.595,-0.26,0.02,0.01,0.26
8.605,-0.26,0.02,-0.02,0.26
8.615,-0.16,0.04,-0.03,0.17
8.625,-0.08,0.05,-0.01,0.09
8.635,-0.10,0.08,-0.06,0.14
8.645,-0.03,0.13,-0.05,0.14
8.655,0.00,0.12,0.07,0.14
8.665,-0.12,0.06,0.04,0.14
8.675,-0.09,-0.00,0.05,0.10
8.685,-0.08,-0.03,0.13,0.16
8.695,-0.16,-0.04,0.10,0.19
8.705,-0.17,-0.05,0.03,0.18
8.715,-0.11,-0.05,-0.03,0.12
8.725,-0.02,-0.07,-0.08,0.11
8.735,0.01,-0.08,-0.07,0.11
8.745,-0.02,-0.07,-0.08,0.11
8.755,-0.07,-0.06,-0.05,0.11
8.765,-0.14,-0.06,0.02,0.16
8.775,-0.15,-0.04,0.06,0.17
8.785,-0.15,-0.01,0.06,0.16
8.795,-0.13,0.03,0.03,0.14
8.805,-0.11,0.03,0.02,0.11
8.815,-0.11,0.05,-0.01,0.12
8.825,-0.09,0.03,-0.08,0.12
8.835,-0.07,0.01,-0.09,0.11
8.845,-0.05,0.01,-0.09,0.11
8.855,-0.06,0.01,-0.10,0.11
8.865,-0.07,0.02,-0.08,0.11
8.875,-0.07,0.02,-0.07,0.10
8.885,-0.11,0.01,-0.03,0.11
8.895,-0.12,-0.01,0.00,0.12
8.905,-0.16,-0.01,0.01,0.16
8.915,-0.15,-0.03,0.02,0.16
8.925,-0.14,-0.03,0.02,0.15
8.935,-0.14,-0.01,-0.00,0.14
8.945,-0.11,-0.00,-0.06,0.13
8.955,-0.09,0.02,-0.06,0.11
8.965,-0.06,0.02,-0.08,0.10
8.975,-0.06,0.01,-0.10,0.12
8.985,-0.09,-0.00,-0.08,0.12
8.995,-0.12,0.01,-0.05,0.13
9.005,-0.11,0.03,-0.03,0.11
9.015,-0.15,0.04,0.02,0.16
9.025,-0.16,0.03,-0.00,0.16
9.035,-0.17,0.00,-0.02,0.17
9.045,-0.13,-0.00,-0.07,0.15
9.055,-0.14,0.02,-0.07,0.16
9.065,-0.14,0.02,-0.02,0.14
9.075,-0.11,0.00,0.02,0.11
9.085,-0.06,-0.01,0.07,0.09
9.095,-0.03,-0.01,0.07,0.08
9.105,-0.03,0.00,0.07,0.07
9.115,-0.01,0.01,0.05,0.05
9.125,-0.06,0.04,0.05,0.09
9.135,-0.14,0.04,0.04,0.15
9.145,-0.11,0.06,0.01,0.13
9.155,-0.07,0.09,-0.07,0.13
9.165,-0.08,0.08,-0.22,0.25
9.175,-0.10,0.05,-0.17,0.20
9.185,-0.04,0.03,0.04,0.06
9.195,-0.03,0.04,0.05,0.07
9.205,-0.13,0.04,0.01,0.13
9.215,-0.17,0.04,-0.00,0.18
9.225,-0.19,0.05,-0.05,0.21
9.235,-0.18,0.09,-0.13,0.24
9.245,-0.11,0.12,-0.11,0.19
9.255,-0.05,0.12,-0.01,0.13
9.265,-0.09,0.09,0.07,0.15
9.275,-0.14,0.02,-0.00,0.14
9.285,-0.11,-0.04,-0.04,0.13
9.295,-0.12,-0.02,0.02,0.12
9.305,-0.07,0.02,0.03,0.08
9.315,-0.02,-0.01,0.05,0.06
9.325,-0.04,-0.04,0.04,0.06
9.335,-0.05,-0.03,-0.01,0.06
9.345,-0.07,-0.00,-0.03,0.07
9.355,-0.11,-0.00,-0.03,0.12
9.365,-0.15,-0.03,-0.03,0.16
9.375,-0.17,-0.04,-0.03,0.18
9.385,-0.18,-0.04,-0.05,0.19
9.395,-0.16,-0.05,-0.09,0.19
9.405,-0.11,-0.04,-0.10,0.15
9.415,-0.05,-0.06,-0.07,0.11
9.425,-0.02,-0.04,-0.09,0.10
9.435,-0.08,-0.04,-0.09,0.13
9.445,-0.10,-0.07,0.05,0.13
9.455,-0.07,-0.05,0.11,0.14
9.465,-0.08,-0.01,0.02,0.08
9.475,-0.09,-0.01,-0.06,0.11
9.485,-0.11,-0.02,-0.05,0.12
9.495,-0.11,-0.00,-0.05,0.12
9.505,-0.10,-0.00,-0.10,0.14
9.515,-0.03,0.00,-0.12,0.12
9.525,-0.03,-0.00,-0.10,0.11
9.535,-0.07,-0.02,-0.05,0.09
9.545,-0.07,-0.02,-0.02,0.08
9.555,-0.06,-0.03,-0.02,0.07
9.565,-0.11,-0.05,0.01,0.13
9.575,-0.14,-0.04,0.01,0.15
9.585,-0.16,-0.06,-0.00,0.17
9.595,-0.15,-0.04,-0.06,0.16
9.605,-0.15,-0.00,-0.08,0.17
9.615,-0.11,-0.00,-0.07,0.13
9.625,-0.11,-0.00,-0.05,0.12
9.635,-0.13,0.00,-0.04,0.14
9.645,-0.14,0.03,-0.06,0.15
9.655,-0.17,0.06,-0.04,0.18
9.665,-0.15,0.07,-0.01,0.17
9.675,-0.11,0.06,0.02,0.13
9.685,-0.07,0.07,-0.00,0.10
9.695,-0.03,0.07,-0.01,0.08
9.705,-0.05,0.07,-0.03,0.09
9.715,-0.06,0.08,-0.03,0.11
9.725,-0.11,0.08,0.01,0.13
9.735,-0.13,0.04,0.03,0.14
9.745,-0.12,0.03,0.07,0.14
9.756,-0.14,0.03,0.09,0.17
9.765,-0.15,0.05,0.07,0.17
9.775,-0.12,0.07,-0.03,0.14
9.785,-0.13,0.06,-0.09,0.16
9.795,-0.13,0.07,-0.06,0.16
9.805,-0.11,0.05,-0.05,0.13
9.816,-0.10,0.02,-0.04,0.11
9.826,-0.10,0.02,-0.03,0.11
9.836,-0.11,-0.03,-0.01,0.11
9.845,-0.14,-0.04,-0.07,0.16
9.856,-0.16,-0.01,0.00,0.16
9.866,-0.17,-0.00,0.02,0.17
9.876,-0.15,-0.01,-0.01,0.15
9.886,-0.15,-0.01,-0.01,0.15
9.896,-0.16,-0.00,0.01,0.16
9.905,-0.13,-0.01,0.02,0.13
9.915,-0.10,-0.02,0.02,0.11
9.925,-0.06,-0.02,0.01,0.06
9.936,-0.07,-0.01,-0.02,0.08
9.946,-0.10,-0.00,0.01,0.10
9.956,-0.11,-0.02,0.03,0.11
9.966,-0.11,-0.02,0.01,0.11
9.976,-0.11,-0.01,0.03,0.12
9.986,-0.08,-0.01,0.05,0.09
9.996,-0.06,-0.02,-0.04,0.07
10.006,-0.06,-0.04,-0.17,0.18
10.016,-0.09,-0.06,-0.05,0.12
10.026,-0.14,-0.05,0.06,0.16
10.036,-0.21,-0.06,0.01,0.21
10.046,-0.23,-0.03,-0.09,0.25
10.056,-0.21,-0.01,-0.13,0.25
10.066,-0.21,0.01,-0.08,0.23
10.076,-0.18,0.03,-0.05,0.19
10.086,-0.14,0.01,-0.04,0.14
10.096,-0.10,0.05,-0.04,0.12
10.106,-0.11,0.05,-0.07,0.14
10.116,-0.13,0.01,-0.04,0.14
10.126,-0.10,-0.02,0.03,0.10
10.136,-0.07,-0.03,0.07,0.11
10.146,-0.04,-0.03,0.07,0.09
10.156,-0.03,-0.01,0.04,0.05
10.166,-0.04,0.03,0.02,0.05
10.176,-0.12,0.05,0.01,0.13
10.186,-0.17,0.04,-0.07,0.18
10.196,-0.18,0.06,-0.10,0.21
10.206,-0.16,0.09,-0.09,0.21
10.216,-0.10,0.07,-0.07,0.14
10.226,-0.08,0.04,-0.01,0.09
10.236,-0.05,0.04,0.00,0.06
10.246,-0.02,0.04,0.00,0.05
10.256,-0.07,0.03,-0.02,0.08
10.266,-0.11,0.00,-0.01,0.11
10.276,-0.12,-0.01,0.05,0.13
10.286,-0.10,-0.00,0.03,0.10
10.296,-0.10,-0.01,-0.08,0.13
10.306,-0.08,-0.02,-0.09,0.12
10.316,-0.08,-0.03,-0.06,0.10
10.326,-0.12,0.00,-0.03,0.12
10.336,-0.16,0.04,-0.06,0.17
10.346,-0.19,0.03,-0.07,0.21
10.356,-0.19,0.02,-0.01,0.19
10.366,-0.18,-0.00,0.06,0.19
10.376,-0.18,0.00,0.06,0.18
10.386,-0.13,-0.02,0.02,0.13
10.396,-0.10,-0.02,0.02,0.10
10.406,-0.05,0.01,0.01,0.05
10.416,-0.03,0.01,-0.00,0.04
10.426,-0.06,-0.02,0.00,0.06
10.436,-0.08,-0.02,0.02,0.08
10.446,-0.06,-0.05,0.05,0.09
10.456,-0.05,-0.06,0.06,0.10
10.466,-0.05,-0.04,0.01,0.06
10.476,-0.09,-0.02,-0.00,0.09
10.486,-0.12,-0.01,-0.02,0.13
10.496,-0.14,0.01,-0.00,0.14
10.506,-0.14,0.03,0.01,0.14
10.516,-0.13,0.01,-0.02,0.13
10.526,-0.08,0.03,-0.05,0.10
10.536,-0.09,0.03,-0.05,0.11
10.546,-0.08,0.03,-0.08,0.11
10.556,-0.01,0.00,0.03,0.03
10.566,-0.05,-0.04,0.03,0.07
10.576,-0.05,-0.06,-0.01,0.08
10.586,-0.05,-0.06,-0.05,0.09
10.596,-0.08,-0.05,-0.06,0.11
10.606,-0.11,-0.02,-0.07,0.13
10.616,-0.11,-0.01,-0.06,0.13
10.626,-0.13,0.01,-0.05,0.14
10.636,-0.15,0.02,-0.05,0.16
10.646,-0.19,0.02,-0.05,0.20
10.656,-0.17,0.02,-0.07,0.19
10.666,-0.18,0.02,-0.07,0.19
10.676,-0.18,0.02,-0.06,0.19
10.686,-0.13,0.03,-0.05,0.14
10.696,-0.09,0.04,-0.06,0.12
10.706,-0.06,0.04,-0.07,0.10
10.716,-0.09,0.03,-0.02,0.10
10.726,-0.11,0.03,0.03,0.12
10.736,-0.15,0.02,-0.01,0.15
10.746,-0.14,0.02,-0.05,0.15
10.756,-0.10,0.05,-0.07,0.13
10.766,-0.04,0.05,-0.05,0.08
10.776,-0.03,0.03,0.00,0.04
10.786,-0.02,0.01,0.08,0.08
10.796,-0.03,0.01,0.11,0.11
10.806,-0.07,0.01,0.09,0.11
10.816,-0.13,0.01,0.02,0.13
10.826,-0.16,0.01,-0.14,0.22
10.836,-0.18,-0.00,-0.17,0.25
10.846,-0.15,-0.02,0.02,0.15
10.856,-0.12,-0.04,-0.06,0.13
10.866,-0.12,-0.03,-0.08,0.15
10.876,-0.15,-0.01,0.03,0.15
10.886,-0.17,-0.01,0.01,0.17
10.896,-0.21,-0.02,-0.06,0.22
10.906,-0.18,-0.03,-0.05,0.19
10.916,-0.11,-0.04,0.02,0.12
10.926,-0.10,-0.04,0.04,0.11
10.936,-0.11,-0.03,-0.01,0.11
10.946,-0.08,-0.02,-0.06,0.10
10.956,-0.04,-0.05,0.04,0.07
10.966,-0.04,-0.07,0.11,0.14
10.976,0.01,-0.03,0.07,0.08
10.986,-0.05,0.00,-0.03,0.06
10.996,-0.16,-0.01,-0.07,0.17
11.006,-0.20,0.01,-0.08,0.22
11.016,-0.21,0.02,-0.08,0.23
11.026,-0.17,0.03,-0.10,0.20
11.036,-0.15,0.05,-0.07,0.18
11.046,-0.11,0.07,-0.04,0.14
11.056,-0.08,0.06,-0.00,0.10
11.067,-0.02,0.04,0.04,0.06
11.076,-0.02,0.04,0.09,0.10
11.086,-0.04,0.06,0.04,0.08
11.096,-0.06,0.04,-0.05,0.09
11.106,-0.09,0.01,-0.01,0.09
11.116,-0.08,-0.00,0.05,0.09
11.126,-0.09,-0.00,-0.01,0.09
11.136,-0.12,0.01,-0.09,0.15
11.146,-0.12,0.03,-0.08,0.15
11.156,-0.13,-0.01,-0.07,0.15
11.167,-0.14,0.03,-0.04,0.15
11.176,-0.14,-0.00,-0.02,0.15
11.187,-0.14,-0.01,-0.01,0.14
11.197,-0.12,0.00,-0.00,0.12
11.206,-0.10,0.01,0.03,0.10
11.216,-0.12,0.02,0.05,0.13
11.226,-0.13,0.03,0.05,0.14
11.236,-0.11,0.02,0.01,0.11
11.246,-0.12,0.00,0.02,0.12
11.256,-0.13,-0.02,-0.03,0.13
11.266,-0.13,-0.02,-0.12,0.18
11.277,-0.13,-0.00,-0.15,0.20
11.287,-0.14,-0.00,-0.15,0.20
11.297,-0.16,-0.01,-0.10,0.19
11.307,-0.13,-0.02,-0.03,0.14
11.317,-0.12,-0.00,0.06,0.13
11.327,-0.08,0.00,0.16,0.18
11.337,-0.05,-0.02,0.21,0.21
11.347,-0.05,-0.03,0.19,0.20
11.357,-0.08,0.01,0.15,0.17
11.367,-0.09,0.03,0.05,0.11
11.377,-0.05,0.05,-0.03,0.08
11.387,-0.04,0.01,-0.06,0.08
11.397,-0.04,0.02,-0.08,0.09
11.407,-0.02,0.04,-0.09,0.10
11.417,-0.08,0.05,-0.05,0.11
11.427,-0.11,0.02,-0.01,0.11
11.437,-0.10,0.03,0.01,0.11
11.447,-0.16,0.04,0.02,0.17
11.457,-0.20,0.02,0.04,0.21
11.467,-0.19,-0.01,0.02,0.20
11.477,-0.16,-0.01,-0.00,0.16
11.487,-0.12,-0.03,-0.00,0.12
11.497,-0.11,0.00,-0.07,0.13
11.507,-0.08,-0.00,-0.06,0.10
11.517,-0.04,-0.00,-0.06,0.07
11.527,-0.05,0.01,-0.03,0.06
11.537,-0.08,0.02,-0.01,0.08
11.547,-0.10,-0.00,0.00,0.10
11.557,-0.11,0.00,-0.02,0.11
11.567,-0.09,0.02,-0.03,0.10
11.577,-0.08,0.03,-0.01,0.09
11.587,-0.10,-0.01,-0.02,0.11
11.597,-0.14,-0.00,-0.05,0.15
11.607,-0.16,0.02,-0.05,0.17
11.617,-0.15,0.02,-0.05,0.16
11.627,-0.12,0.03,-0.04,0.13
11.637,-0.12,0.03,-0.04,0.13
11.647,-0.10,0.04,-0.03,0.11
11.657,-0.10,0.03,-0.02,0.11
11.667,-0.13,0.03,-0.02,0.13
11.677,-0.15,0.05,-0.10,0.18
11.687,-0.15,0.04,-0.09,0.18
11.697,-0.10,0.00,0.03,0.10
11.707,-0.08,0.00,0.02,0.09
11.717,-0.09,0.02,-0.05,0.11
11.727,-0.07,-0.02,-0.04,0.08
11.737,-0.05,-0.00,-0.05,0.08
11.747,-0.13,0.02,-0.06,0.15
11.757,-0.14,0.02,-0.07,0.16
11.767,-0.13,0.02,-0.01,0.14
11.777,-0.13,0.03,0.04,0.14
11.787,-0.14,0.02,0.00,0.14
11.797,-0.10,-0.02,-0.06,0.12
11.807,-0.09,-0.04,-0.06,0.12
11.817,-0.04,-0.05,-0.01,0.06
11.827,-0.02,-0.04,0.04,0.06
11.837,-0.04,-0.04,0.04,0.07
11.847,-0.10,-0.01,0.03,0.11
11.857,-0.14,-0.01,-0.01,0.14
11.867,-0.15,0.00,-0.04,0.16
11.877,-0.17,0.02,-0.02,0.17
11.887,-0.13,0.06,0.01,0.14
11.897,-0.11,0.04,0.02,0.12
11.907,-0.06,0.03,0.02,0.07
11.917,-0.05,0.02,0.01,0.05
11.927,-0.04,0.01,0.00,0.04
11.937,-0.02,0.01,-0.03,0.04
11.947,-0.05,-0.02,-0.08,0.10
11.957,-0.08,-0.05,-0.01,0.10
11.967,-0.10,-0.04,0.04,0.11
11.977,-0.14,-0.03,-0.05,0.15
11.987,-0.16,-0.03,-0.12,0.20
11.997,-0.16,-0.04,-0.09,0.19
12.007,-0.20,-0.01,-0.08,0.21
12.017,-0.20,0.02,-0.05,0.21
12.027,-0.17,0.03,-0.03,0.18
12.037,-0.12,-0.00,-0.00,0.12
12.047,-0.08,-0.02,0.04,0.09
12.057,-0.06,-0.01,0.05,0.08
12.067,-0.04,0.00,0.00,0.04
12.077,-0.05,-0.01,0.01,0.05
12.087,-0.07,-0.02,0.01,0.08
12.097,-0.11,-0.01,-0.02,0.11
12.107,-0.15,0.00,-0.05,0.16
12.117,-0.13,0.01,-0.08,0.16
12.127,-0.16,0.01,-0.08,0.18
12.137,-0.18,-0.00,-0.05,0.19
12.147,-0.20,-0.00,-0.03,0.20
12.157,-0.15,-0.01,0.01,0.15
12.167,-0.11,-0.02,0.11,0.16
12.177,-0.07,-0.02,0.18,0.19
12.187,-0.01,-0.02,0.14,0.14
12.197,-0.01,-0.01,0.06,0.07
12.207,-0.02,0.00,-0.05,0.05
12.217,-0.06,-0.01,-0.07,0.09
12.227,-0.07,-0.01,-0.07,0.10
12.237,-0.11,-0.01,-0.05,0.12
12.247,-0.12,-0.04,-0.03,0.13
12.257,-0.13,-0.03,-0.03,0.13
12.267,-0.13,-0.00,-0.07,0.15
12.277,-0.18,0.01,-0.12,0.22
12.287,-0.18,0.04,-0.10,0.21
12.297,-0.09,0.03,-0.00,0.09
12.307,0.01,0.03,0.06,0.07
12.317,0.04,-0.01,0.14,0.15
12.327,0.01,-0.01,0.07,0.07
12.337,-0.12,-0.02,0.05,0.14
12.351,-0.19,-0.02,-0.11,0.22
12.361,-0.12,0.00,-0.21,0.24
12.371,-0.16,0.05,-0.13,0.21
12.381,-0.22,0.04,-0.11,0.25
12.391,-0.19,0.04,-0.12,0.23
12.401,-0.16,0.08,-0.12,0.21
12.411,-0.17,0.09,-0.07,0.21
12.421,-0.17,0.10,-0.03,0.20
12.431,-0.17,0.09,-0.05,0.20
12.441,-0.14,0.10,-0.04,0.18
12.451,-0.10,0.10,-0.01,0.14
12.461,-0.06,0.09,0.00,0.11
12.471,-0.05,0.06,0.02,0.08
12.481,-0.06,0.01,0.03,0.07
12.491,-0.06,0.02,0.02,0.07
12.501,-0.07,0.01,0.00,0.08
12.511,-0.09,-0.00,-0.01,0.09
12.521,-0.09,-0.01,-0.09,0.13
12.531,-0.11,-0.04,-0.18,0.21
12.541,-0.13,-0.02,-0.07,0.15
12.551,-0.16,-0.01,0.04,0.17
12.561,-0.17,-0.01,0.02,0.17
12.571,-0.14,-0.04,0.01,0.14
12.581,-0.15,-0.04,-0.05,0.16
12.591,-0.17,-0.03,-0.07,0.18
12.601,-0.14,-0.03,-0.04,0.15
12.611,-0.08,-0.01,0.04,0.08
12.621,-0.05,0.01,0.05,0.07
12.631,-0.07,0.01,-0.01,0.07
12.641,-0.11,-0.01,-0.06,0.13
12.651,-0.12,-0.04,-0.04,0.13
12.661,-0.07,-0.04,0.05,0.09
12.671,-0.04,-0.03,0.10,0.11
12.681,-0.05,-0.03,0.05,0.08
12.691,-0.10,-0.01,0.01,0.10
12.701,-0.17,0.02,-0.02,0.17
12.711,-0.22,0.02,-0.05,0.23
12.721,-0.21,0.03,-0.09,0.23
12.731,-0.17,0.04,-0.08,0.19
12.741,-0.14,0.02,-0.03,0.15
12.751,-0.11,-0.01,-0.01,0.11
12.761,-0.10,-0.03,-0.00,0.11
12.771,-0.08,-0.02,-0.02,0.08
12.781,-0.08,-0.01,-0.03,0.08
12.791,-0.07,-0.00,-0.04,0.09
12.801,-0.05,0.00,0.03,0.06
12.811,-0.03,-0.02,0.03,0.05
12.821,-0.05,-0.01,-0.00,0.05
12.831,-0.09,-0.04,0.01,0.09
12.841,-0.09,-0.05,0.03,0.11
12.851,-0.09,-0.01,0.01,0.09
12.861,-0.15,-0.00,-0.04,0.16
12.871,-0.17,0.02,-0.11,0.20
12.881,-0.18,0.02,-0.10,0.21
12.891,-0.12,0.00,-0.05,0.13
12.901,-0.06,0.00,-0.00,0.06
12.911,-0.03,-0.01,0.02,0.04
12.921,-0.02,0.00,0.05,0.06
12.931,-0.07,-0.02,0.02,0.07
12.942,-0.11,-0.01,0.02,0.11
12.951,-0.17,-0.02,-0.03,0.17
12.961,-0.22,0.01,-0.05,0.23
12.971,-0.20,0.01,-0.05,0.21
12.981,-0.19,0.00,-0.08,0.20
12.991,-0.13,0.00,-0.04,0.13
13.001,-0.07,-0.01,-0.02,0.08
13.011,-0.04,0.00,-0.03,0.05
13.022,-0.04,0.00,-0.01,0.04
13.031,-0.05,0.01,0.05,0.07
13.042,-0.08,0.01,0.06,0.10
13.052,-0.10,0.03,0.02,0.11
13.062,-0.11,0.05,-0.02,0.12
13.071,-0.13,0.05,-0.03,0.14
13.082,-0.16,0.02,-0.02,0.16
13.092,-0.17,0.01,-0.02,0.17
13.102,-0.14,0.03,-0.03,0.14
13.112,-0.09,0.03,-0.07,0.12
13.122,-0.11,0.01,-0.08,0.14
13.131,-0.14,0.01,-0.06,0.15
13.142,-0.11,0.01,-0.07,0.14
13.152,-0.06,0.00,-0.03,0.07
13.162,-0.04,-0.01,0.02,0.05
13.172,-0.10,0.00,-0.01,0.10
13.182,-0.13,-0.01,0.00,0.13
13.192,-0.12,-0.01,0.01,0.12
13.202,-0.10,-0.00,-0.00,0.10
13.212,-0.13,-0.01,-0.02,0.13
13.222,-0.13,-0.02,-0.03,0.13
13.232,-0.12,-0.00,-0.02,0.12
13.242,-0.14,0.01,-0.04,0.15
13.252,-0.13,0.00,-0.05,0.14
13.262,-0.12,-0.02,-0.05,0.13
13.272,-0.11,-0.00,-0.04,0.11
13.282,-0.10,0.00,-0.02,0.11
13.292,-0.11,-0.01,-0.04,0.12
13.302,-0.11,-0.00,-0.02,0.11
13.312,-0.12,-0.02,0.01,0.12
13.322,-0.13,0.01,0.00,0.13
13.332,-0.09,0.02,-0.01,0.09
13.342,-0.07,-0.00,0.02,0.07
13.352,-0.04,0.01,0.04,0.06
13.362,-0.06,0.03,0.05,0.08
13.372,-0.12,0.03,0.02,0.12
13.382,-0.09,0.02,-0.04,0.11
13.392,-0.11,0.03,-0.17,0.21
13.402,-0.11,0.02,-0.16,0.19
13.412,-0.06,0.00,0.03,0.07
13.422,-0.08,0.01,0.01,0.08
13.432,-0.12,-0.00,-0.03,0.12
13.442,-0.16,0.00,0.03,0.16
13.452,-0.18,0.02,-0.03,0.18
13.462,-0.20,0.04,-0.09,0.22
13.472,-0.17,0.03,-0.06,0.18
13.482,-0.11,0.05,0.05,0.13
13.492,-0.08,0.06,0.03,0.10
13.502,-0.08,0.04,-0.03,0.09
13.512,-0.07,0.01,-0.06,0.09
13.522,-0.07,-0.04,0.03,0.09
13.532,-0.06,-0.03,0.06,0.09
13.542,-0.05,-0.00,0.03,0.05
13.552,-0.08,0.01,-0.02,0.08
13.562,-0.07,-0.01,-0.03,0.08
13.572,-0.08,0.01,-0.04,0.09
13.582,-0.13,0.03,-0.05,0.14
13.592,-0.15,0.02,-0.06,0.17
13.602,-0.19,0.03,-0.05,0.19
13.612,-0.14,0.02,-0.03,0.15
13.622,-0.10,-0.00,-0.05,0.11
13.632,-0.06,0.01,-0.02,0.06
13.642,-0.04,0.00,0.01,0.04
13.652,-0.04,-0.02,0.01,0.05
13.662,-0.08,-0.06,-0.04,0.10
13.672,-0.05,-0.04,0.01,0.07
13.682,-0.04,-0.01,0.10,0.11
13.692,-0.07,0.01,0.04,0.09
13.702,-0.10,0.02,-0.05,0.12
13.712,-0.11,0.03,-0.05,0.13
13.722,-0.10,0.04,-0.03,0.11
13.732,-0.10,0.07,-0.06,0.14
13.742,-0.12,0.07,-0.04,0.14
13.752,-0.11,0.06,-0.01,0.12
13.762,-0.10,0.06,0.02,0.12
13.772,-0.09,0.07,-0.02,0.12
13.782,-0.05,0.07,-0.09,0.12
13.792,-0.04,0.05,-0.11,0.13
13.802,-0.03,0.08,-0.11,0.14
13.812,-0.07,0.08,-0.07,0.12
13.822,-0.10,0.06,-0.04,0.12
13.832,-0.11,0.05,-0.07,0.14
13.842,-0.07,0.06,-0.06,0.11
13.852,-0.08,0.08,-0.02,0.11
13.862,-0.10,0.04,0.03,0.12
13.872,-0.16,-0.03,0.06,0.18
13.882,-0.15,-0.00,-0.01,0.15
13.892,-0.20,0.01,-0.04,0.20
13.902,-0.21,0.01,-0.07,0.22
13.912,-0.18,-0.03,-0.06,0.19
13.922,-0.18,-0.03,-0.01,0.18
13.932,-0.13,-0.04,-0.02,0.14
13.942,-0.06,-0.02,-0.02,0.06
13.952,-0.02,0.01,-0.02,0.03
13.962,-0.02,0.03,0.02,0.04
13.972,-0.02,0.04,0.02,0.05
13.982,-0.09,0.03,0.04,0.10
13.992,-0.15,0.03,0.10,0.19
14.002,-0.14,0.00,0.11,0.18
14.012,-0.11,-0.02,0.10,0.15
14.022,-0.10,-0.03,0.07,0.12
14.032,-0.10,-0.05,-0.01,0.12
14.042,-0.09,-0.06,-0.07,0.13
14.052,-0.07,-0.05,-0.07,0.11
14.062,-0.08,-0.06,-0.04,0.10
14.072,-0.09,-0.05,-0.01,0.10
14.082,-0.09,-0.04,-0.03,0.10
14.092,-0.09,-0.04,-0.02,0.10
14.102,-0.09,-0.02,-0.04,0.10
14.112,-0.13,-0.02,-0.05,0.14
14.122,-0.14,-0.01,-0.03,0.14
14.132,-0.14,-0.02,-0.02,0.14
14.142,-0.15,-0.00,0.01,0.15
14.152,-0.10,0.00,0.02,0.11
14.162,-0.07,0.03,0.04,0.09
14.172,-0.07,0.05,0.02,0.09
14.182,-0.10,0.05,0.00,0.12
14.192,-0.13,0.03,-0.01,0.13
14.202,-0.17,0.02,-0.04,0.17
14.212,-0.17,0.03,-0.03,0.17
14.222,-0.17,0.02,-0.03,0.17
14.232,-0.13,0.01,-0.07,0.15
14.242,-0.09,-0.02,-0.10,0.14
14.252,-0.09,-0.02,-0.09,0.13
14.262,-0.13,-0.02,-0.12,0.18
14.272,-0.15,-0.05,-0.14,0.21
14.282,-0.14,-0.06,-0.02,0.15
14.292,-0.15,-0.05,0.06,0.17
14.302,-0.19,-0.05,0.01,0.20
14.312,-0.25,-0.05,-0.04,0.26
14.322,-0.23,-0.05,-0.04,0.24
14.332,-0.23,-0.03,-0.13,0.26
14.342,-0.19,-0.01,-0.15,0.24
14.353,-0.11,-0.02,-0.02,0.12
14.362,-0.07,0.01,0.06,0.09
14.373,-0.07,0.01,-0.01,0.08
14.383,-0.11,-0.02,-0.07,0.14
14.393,-0.09,-0.04,-0.04,0.11
14.402,-0.07,-0.02,0.06,0.10
14.413,-0.07,-0.01,0.09,0.11
14.422,-0.06,-0.01,0.04,0.07
14.433,-0.05,0.00,-0.02,0.05
14.442,-0.10,-0.00,-0.03,0.10
14.453,-0.16,0.01,-0.07,0.17
14.463,-0.21,0.03,-0.11,0.24
14.473,-0.20,0.02,-0.13,0.24
14.483,-0.15,0.02,-0.09,0.17
14.493,-0.07,-0.00,-0.07,0.10
14.503,-0.02,-0.01,-0.04,0.05
14.513,0.01,0.01,-0.02,0.02
14.523,-0.02,0.00,-0.03,0.04
14.533,-0.04,0.00,-0.05,0.07
14.543,-0.10,0.00,0.01,0.10
14.553,-0.14,0.02,0.08,0.16
14.563,-0.13,0.01,0.03,0.14
14.573,-0.16,0.01,-0.07,0.17
14.583,-0.16,0.02,-0.08,0.18
14.593,-0.11,0.03,-0.08,0.14
14.603,-0.11,0.04,-0.07,0.14
14.613,-0.13,0.07,-0.08,0.17
14.623,-0.14,0.05,-0.05,0.16
14.633,-0.12,0.05,0.00,0.13
14.643,-0.10,0.04,0.02,0.11
14.653,-0.11,0.03,0.02,0.12
14.663,-0.08,0.03,0.01,0.09
14.673,-0.10,0.03,0.01,0.11
14.683,-0.11,0.02,0.03,0.12
14.693,-0.12,0.00,0.01,0.12
14.703,-0.13,0.01,-0.00,0.13
14.713,-0.12,0.01,-0.03,0.12
14.723,-0.12,0.01,-0.04,0.13
14.733,-0.09,-0.01,-0.03,0.09
14.743,-0.08,-0.01,-0.02,0.09
14.753,-0.10,-0.02,0.01,0.10
14.763,-0.10,-0.02,0.01,0.10
14.773,-0.10,-0.02,-0.01,0.11
14.783,-0.10,-0.01,-0.03,0.11
14.793,-0.11,-0.01,-0.03,0.11
14.803,-0.12,0.01,-0.04,0.13
14.813,-0.11,-0.00,-0.01,0.12
14.823,-0.10,0.01,-0.01,0.11
14.833,-0.09,0.00,-0.01,0.09
14.843,-0.08,0.00,-0.02,0.09
14.853,-0.10,-0.01,-0.03,0.10
14.863,-0.11,0.01,-0.04,0.12
14.873,-0.11,0.00,-0.05,0.12
14.883,-0.11,0.00,-0.06,0.12
14.893,-0.13,-0.02,-0.04,0.13
14.903,-0.15,-0.01,-0.03,0.15
14.913,-0.14,-0.03,-0.03,0.15
14.923,-0.14,-0.02,-0.04,0.14
14.933,-0.15,-0.03,-0.04,0.16
14.943,-0.15,-0.03,-0.04,0.16
14.953,-0.11,-0.00,-0.03,0.11
14.963,-0.06,0.01,-0.04,0.08
14.973,-0.06,0.03,-0.01,0.07
14.983,-0.08,0.02,0.01,0.08
14.993,-0.08,0.02,0.01,0.09
15.003,-0.11,0.02,0.04,0.11
15.013,-0.10,0.03,0.07,0.12
15.023,-0.09,-0.01,0.10,0.13
15.033,-0.12,-0.03,0.10,0.16
15.043,-0.12,-0.01,0.04,0.13
15.053,-0.14,-0.03,-0.03,0.15
15.063,-0.12,-0.04,-0.03,0.13
15.073,-0.11,-0.04,-0.08,0.14
15.083,-0.12,-0.05,-0.07,0.15
15.093,-0.11,-0.04,-0.02,0.12
15.103,-0.10,-0.01,-0.01,0.10
15.113,-0.08,-0.00,-0.01,0.08
15.123,-0.10,0.01,-0.04,0.11
15.133,-0.13,0.02,-0.08,0.15
15.143,-0.16,0.01,-0.11,0.20
15.153,-0.12,0.00,0.01,0.13
15.163,-0.08,0.01,0.03,0.09
15.173,-0.12,0.00,-0.07,0.14
15.183,-0.14,-0.00,-0.02,0.14
15.193,-0.13,-0.01,-0.03,0.13
15.203,-0.18,0.01,-0.13,0.22
15.213,-0.16,0.05,-0.20,0.26
15.223,-0.09,0.05,-0.13,0.17
15.233,-0.04,0.05,-0.02,0.07
15.243,-0.04,0.04,-0.02,0.06
15.253,-0.05,0.01,-0.06,0.08
15.263,-0.08,-0.02,-0.03,0.08
15.273,-0.06,-0.02,0.08,0.10
15.283,-0.06,0.01,0.13,0.14
15.293,-0.06,0.01,0.10,0.12
15.303,-0.09,0.04,0.05,0.11
15.313,-0.10,0.06,-0.01,0.12
15.323,-0.10,0.06,-0.07,0.14
15.333,-0.11,0.08,-0.06,0.15
15.343,-0.11,0.08,-0.05,0.14
15.353,-0.08,0.05,-0.01,0.10
15.363,-0.06,0.05,0.04,0.09
15.373,-0.08,0.03,0.03,0.09
15.383,-0.05,0.01,-0.02,0.06
15.393,-0.01,0.00,-0.03,0.03
15.403,-0.04,-0.01,-0.04,0.05
15.413,-0.06,-0.01,-0.05,0.08
15.423,-0.08,-0.01,0.02,0.08
15.433,-0.06,-0.00,0.03,0.07
15.443,-0.10,-0.01,-0.08,0.13
15.453,-0.12,0.02,-0.10,0.16
15.463,-0.10,0.03,-0.07,0.13
15.473,-0.10,0.03,-0.08,0.13
15.483,-0.10,0.05,-0.10,0.15
15.493,-0.13,0.02,-0.09,0.17
15.503,-0.14,0.00,-0.02,0.14
15.513,-0.16,-0.01,0.02,0.16
15.523,-0.15,-0.00,0.04,0.16
15.533,-0.15,-0.02,0.04,0.15
15.543,-0.15,-0.03,0.02,0.16
15.553,-0.13,-0.01,-0.00,0.14
15.563,-0.08,-0.01,-0.06,0.10
15.573,-0.07,0.01,-0.11,0.13
15.583,-0.05,0.02,-0.11,0.12
15.593,-0.06,-0.02,-0.09,0.11
15.603,-0.08,-0.02,-0.03,0.09
15.613,-0.10,-0.01,0.04,0.11
15.623,-0.12,-0.01,0.05,0.13
15.633,-0.12,-0.01,0.04,0.13
15.643,-0.10,-0.02,0.00,0.10
15.653,-0.09,-0.01,-0.01,0.10
15.663,-0.09,-0.03,0.01,0.10
15.673,-0.09,-0.04,0.05,0.11
15.683,-0.12,-0.05,0.07,0.15
15.693,-0.12,-0.02,0.05,0.13
15.703,-0.09,0.01,-0.03,0.09
15.714,-0.07,-0.00,-0.06,0.09
15.724,-0.05,-0.02,-0.08,0.10
15.734,-0.05,0.00,-0.07,0.08
15.743,-0.10,0.01,-0.02,0.10
15.753,-0.16,-0.00,0.01,0.16
15.763,-0.14,0.01,-0.02,0.14
15.774,-0.11,0.03,-0.04,0.12
15.783,-0.07,0.00,-0.02,0.07
15.793,-0.06,-0.01,0.02,0.07
15.803,-0.05,-0.01,0.03,0.06
15.814,-0.06,-0.02,0.02,0.06
15.823,-0.12,0.01,0.01,0.12
15.834,-0.20,0.02,0.01,0.20
15.843,-0.23,0.03,-0.05,0.23
15.853,-0.20,0.04,-0.11,0.23
15.864,-0.15,0.00,-0.09,0.18
15.874,-0.08,0.00,-0.06,0.10
15.883,-0.07,0.01,-0.02,0.07
15.894,-0.08,0.02,0.03,0.09
15.904,-0.08,0.02,0.06,0.10
15.914,-0.11,0.02,0.08,0.14
15.924,-0.12,0.01,0.05,0.13
15.934,-0.14,-0.00,-0.04,0.14
15.944,-0.11,0.02,-0.09,0.15
15.954,-0.10,0.02,-0.09,0.13
15.964,-0.11,0.02,-0.09,0.14
15.974,-0.13,0.04,-0.09,0.16
15.984,-0.16,0.04,-0.07,0.18
15.990,-0.19,0.01,-0.02,0.19
16.000,-0.14,0.00,0.03,0.15
16.010,-0.13,-0.02,-0.00,0.13
16.020,-0.07,-0.01,-0.01,0.08
16.030,-0.02,0.02,-0.01,0.03
16.040,-0.05,0.04,-0.07,0.09
16.050,-0.07,0.02,-0.10,0.12
16.060,-0.07,0.00,-0.00,0.07
16.070,-0.09,-0.01,0.06,0.11
16.080,-0.17,-0.04,0.03,0.18
16.090,-0.20,-0.05,0.03,0.20
16.100,-0.29,-0.00,-0.01,0.29
16.110,-0.30,0.02,-0.13,0.33
16.120,-0.20,0.04,-0.18,0.28
16.130,-0.12,0.05,-0.00,0.13
16.140,-0.07,0.03,0.16,0.18
16.150,-0.04,-0.01,0.11,0.11
16.160,-0.02,-0.06,-0.02,0.07
16.170,-0.05,-0.06,-0.05,0.10
16.180,-0.09,-0.05,-0.02,0.10
16.190,-0.08,-0.03,-0.04,0.09
16.200,-0.12,-0.04,-0.08,0.15
16.210,-0.14,-0.03,-0.15,0.21
16.220,-0.18,-0.03,-0.17,0.25
16.230,-0.19,-0.02,-0.16,0.25
16.240,-0.16,-0.01,-0.13,0.21
16.250,-0.13,-0.01,-0.06,0.15
16.260,-0.10,-0.03,-0.01,0.11
16.270,-0.09,-0.03,0.03,0.10
16.280,-0.05,-0.03,0.03,0.06
16.290,-0.06,0.02,0.01,0.06
16.300,-0.05,0.05,-0.01,0.07
16.310,-0.09,0.02,-0.09,0.13
16.320,-0.13,0.01,-0.05,0.14
16.330,-0.13,0.01,0.04,0.14
16.340,-0.15,-0.02,0.01,0.15
16.353,-0.14,-0.01,-0.08,0.16
16.363,-0.10,-0.01,-0.06,0.11
16.373,-0.13,0.01,-0.03,0.14
16.383,-0.16,0.10,-0.06,0.20
16.393,-0.06,-0.06,-0.02,0.08
16.403,-0.13,-0.11,0.05,0.17
16.413,-0.12,-0.02,0.06,0.13
16.423,-0.07,-0.04,0.03,0.08
16.433,-0.07,-0.08,-0.02,0.10
16.443,-0.04,-0.07,-0.04,0.09
16.453,-0.05,0.02,-0.02,0.06
16.463,-0.11,0.04,-0.05,0.13
16.473,-0.14,0.07,-0.05,0.16
16.483,-0.15,0.07,-0.03,0.17
16.493,-0.18,0.06,-0.02,0.19
16.503,-0.17,0.06,-0.05,0.19
16.513,-0.11,0.08,-0.02,0.14
16.523,-0.09,0.07,0.03,0.12
16.533,-0.06,0.06,0.01,0.08
16.543,-0.03,0.06,-0.02,0.07
16.553,-0.05,0.06,-0.04,0.09
16.563,-0.06,0.09,-0.06,0.12
16.573,-0.06,0.05,-0.05,0.09
16.583,-0.09,0.00,-0.02,0.09
16.593,-0.13,0.01,-0.00,0.13
16.603,-0.11,-0.02,-0.06,0.13
16.613,-0.15,-0.03,-0.06,0.16
16.623,-0.16,-0.01,-0.05,0.17
16.633,-0.12,0.01,-0.04,0.13
16.643,-0.08,0.02,-0.02,0.09
16.653,-0.08,-0.01,0.00,0.08
16.663,-0.12,-0.01,0.00,0.12
16.673,-0.16,0.03,-0.04,0.17
16.683,-0.16,0.03,-0.07,0.17
16.693,-0.13,-0.01,-0.03,0.13
16.703,-0.13,-0.00,-0.01,0.13
16.713,-0.11,0.01,-0.03,0.11
16.723,-0.11,0.01,-0.03,0.11
16.733,-0.15,-0.00,-0.03,0.15
16.743,-0.14,0.02,-0.01,0.14
16.753,-0.09,-0.00,-0.02,0.09
16.763,-0.08,-0.01,0.01,0.08
16.773,-0.03,-0.00,0.02,0.04
16.783,-0.03,-0.01,0.02,0.04
16.793,-0.05,-0.00,0.02,0.05
16.803,-0.07,-0.01,-0.02,0.07
16.813,-0.10,0.00,-0.02,0.11
16.823,-0.14,-0.00,-0.03,0.14
16.833,-0.16,0.02,-0.03,0.17
16.843,-0.14,0.02,-0.05,0.15
16.853,-0.13,0.03,-0.05,0.14
16.863,-0.10,0.02,-0.02,0.10
16.873,-0.06,0.02,-0.01,0.07
16.883,-0.05,0.01,-0.04,0.06
16.893,-0.09,0.01,-0.16,0.18
16.903,-0.10,-0.00,-0.10,0.14
16.913,-0.09,-0.00,0.10,0.13
16.923,-0.14,-0.02,0.05,0.15
16.933,-0.17,-0.03,0.01,0.17
16.943,-0.17,-0.01,0.01,0.17
16.953,-0.20,0.00,-0.10,0.22
16.963,-0.18,0.01,-0.21,0.28
16.973,-0.12,0.01,-0.17,0.21
16.983,-0.07,0.01,-0.01,0.07
16.993,-0.07,0.02,0.04,0.09
17.003,-0.11,-0.01,0.00,0.11
17.013,-0.12,-0.04,-0.01,0.13
17.023,-0.14,-0.07,0.07,0.17
17.033,-0.11,-0.05,0.09,0.15
17.043,-0.06,-0.02,0.03,0.07
17.053,-0.03,-0.00,-0.00,0.03
17.063,-0.02,0.03,-0.03,0.05
17.073,-0.05,0.05,-0.02,0.07
17.083,-0.09,0.07,-0.01,0.12
17.093,-0.15,0.07,0.04,0.17
17.103,-0.16,0.05,0.06,0.18
17.113,-0.14,0.04,0.05,0.16
17.123,-0.09,0.04,0.03,0.10
17.133,-0.03,0.03,0.01,0.04
17.143,0.01,0.00,-0.01,0.02
17.153,0.02,0.01,-0.02,0.03
17.163,0.02,-0.00,-0.06,0.06
17.173,0.04,0.04,0.02,0.05
17.183,0.01,0.04,0.10,0.11
17.193,-0.08,0.03,0.04,0.09
17.203,-0.14,0.02,-0.09,0.17
17.213,-0.13,0.03,-0.14,0.19
17.223,-0.12,0.04,-0.14,0.19
17.233,-0.16,0.04,-0.16,0.23
17.243,-0.16,0.03,-0.15,0.22
17.253,-0.21,0.03,-0.09,0.23
17.263,-0.22,0.02,-0.04,0.22
17.273,-0.17,0.02,-0.05,0.18
17.283,-0.18,0.02,-0.06,0.19
17.293,-0.18,0.06,-0.09,0.21
17.303,-0.12,0.04,-0.09,0.16
17.313,-0.07,0.00,-0.06,0.10
17.323,-0.04,0.02,-0.05,0.07
17.333,-0.03,0.05,-0.04,0.07
17.343,-0.07,0.02,-0.02,0.07
17.353,-0.13,-0.02,0.01,0.13
17.363,-0.13,0.01,0.00,0.13
17.373,-0.12,0.02,-0.04,0.13
17.383,-0.09,0.01,-0.02,0.10
17.393,-0.09,-0.02,-0.00,0.10
17.403,-0.11,-0.05,-0.01,0.12
17.413,-0.09,-0.07,0.01,0.11
17.423,-0.08,-0.05,0.02,0.10
17.433,-0.08,-0.06,0.00,0.10
17.443,-0.12,-0.06,-0.02,0.14
17.453,-0.13,-0.06,-0.02,0.15
17.463,-0.12,-0.03,-0.01,0.12
17.473,-0.10,-0.02,-0.03,0.11
17.483,-0.11,-0.01,-0.05,0.12
17.493,-0.10,-0.01,-0.03,0.10
17.503,-0.10,-0.01,0.02,0.10
17.514,-0.10,0.00,0.04,0.10
17.523,-0.10,-0.01,0.01,0.10
17.534,-0.13,-0.04,0.00,0.13
17.544,-0.15,-0.06,0.00,0.16
17.553,-0.16,-0.04,-0.02,0.17
17.563,-0.15,-0.03,-0.05,0.16
17.573,-0.11,-0.02,-0.04,0.12
17.583,-0.11,0.01,-0.01,0.11
17.593,-0.10,0.01,0.06,0.12
17.603,-0.10,0.00,0.07,0.12
17.613,-0.10,0.03,0.02,0.11
17.623,-0.12,0.01,-0.00,0.12
17.633,-0.11,0.03,-0.00,0.11
17.644,-0.11,0.02,-0.02,0.11
17.653,-0.10,0.02,-0.00,0.11
17.664,-0.07,-0.01,0.01,0.07
17.674,-0.09,0.01,-0.00,0.09
17.684,-0.11,-0.01,-0.05,0.12
17.694,-0.09,-0.02,-0.09,0.13
17.703,-0.09,0.01,-0.07,0.12
17.713,-0.11,0.03,-0.04,0.12
17.724,-0.10,0.03,-0.01,0.11
17.734,-0.09,0.04,-0.01,0.10
17.744,-0.08,0.04,-0.01,0.09
17.754,-0.10,0.04,-0.03,0.12
17.764,-0.14,0.06,-0.08,0.18
17.774,-0.12,0.07,-0.07,0.16
17.784,-0.08,0.05,0.05,0.11
17.794,-0.09,0.05,0.06,0.12
17.804,-0.15,0.04,0.00,0.16
17.814,-0.14,-0.00,0.02,0.15
17.824,-0.13,-0.01,-0.03,0.14
17.834,-0.13,0.01,-0.12,0.17
17.844,-0.10,0.03,-0.16,0.19
17.854,-0.08,0.04,-0.11,0.14
17.864,-0.07,0.07,-0.02,0.10
17.874,-0.11,0.05,0.03,0.13
17.884,-0.13,-0.01,0.01,0.13
17.894,-0.10,-0.04,0.06,0.12
17.904,-0.07,-0.03,0.08,0.11
17.914,-0.05,0.00,0.05,0.07
17.924,-0.07,0.01,0.01,0.07
17.934,-0.11,-0.01,-0.07,0.13
17.944,-0.13,0.01,-0.15,0.19
17.954,-0.14,0.03,-0.17,0.22
17.964,-0.18,0.05,-0.16,0.24
17.974,-0.19,0.03,-0.08,0.21
17.984,-0.14,-0.02,0.03,0.15
17.994,-0.09,-0.04,0.13,0.17
18.004,-0.01,-0.05,0.21,0.22
18.014,0.06,-0.12,0.22,0.26
18.024,0.11,-0.09,0.12,0.19
18.034,0.03,-0.03,0.03,0.05
18.044,-0.05,-0.02,-0.04,0.07
18.054,-0.10,-0.09,-0.07,0.15
18.064,-0.15,-0.09,-0.07,0.19
18.074,-0.13,-0.01,-0.11,0.17
18.084,-0.13,0.03,-0.16,0.21
18.094,-0.16,0.04,-0.18,0.25
18.104,-0.16,0.01,-0.11,0.20
18.114,-0.17,-0.00,-0.02,0.17
18.124,-0.21,-0.01,0.03,0.21
18.134,-0.23,-0.01,0.04,0.23
18.144,-0.18,0.01,0.02,0.18
18.154,-0.14,0.02,-0.01,0.14
18.164,-0.09,0.06,-0.07,0.13
18.174,-0.05,0.06,-0.10,0.13
18.184,-0.05,0.05,-0.09,0.11
18.194,-0.11,0.05,-0.07,0.13
18.204,-0.14,0.04,-0.07,0.16
18.214,-0.14,0.05,-0.09,0.17
18.224,-0.17,0.03,-0.09,0.20
18.234,-0.14,0.01,-0.07,0.15
18.244,-0.09,0.02,-0.06,0.11
18.254,-0.11,0.02,-0.02,0.11
18.264,-0.12,0.02,-0.03,0.13
18.274,-0.12,0.03,-0.03,0.13
18.284,-0.12,0.03,-0.04,0.13
18.294,-0.12,0.04,-0.05,0.14
18.304,-0.13,0.05,-0.04,0.15
18.314,-0.13,0.01,0.01,0.13
18.324,-0.10,-0.02,0.02,0.10
18.334,-0.08,-0.01,0.04,0.08
18.344,-0.08,-0.01,0.03,0.08
18.354,-0.09,0.03,0.01,0.10
18.364,-0.11,0.04,0.04,0.12
18.374,-0.10,0.03,0.08,0.13
18.384,-0.14,0.03,0.13,0.20
18.394,-0.15,0.02,0.18,0.23
18.404,-0.09,0.02,0.13,0.16
18.414,-0.04,0.02,0.06,0.07
18.424,-0.05,-0.01,0.01,0.06
18.434,-0.11,-0.03,-0.04,0.12
18.444,-0.15,-0.04,-0.04,0.16
18.454,-0.20,-0.02,-0.04,0.20
18.464,-0.24,-0.03,-0.06,0.25
18.474,-0.22,-0.04,-0.07,0.23
18.484,-0.15,-0.02,-0.00,0.15
18.494,-0.07,-0.03,0.08,0.11
18.504,-0.02,-0.01,0.13,0.13
18.514,-0.05,0.00,0.09,0.10
18.524,-0.08,0.01,-0.01,0.08
18.534,-0.11,0.02,-0.06,0.13
18.544,-0.15,0.02,-0.04,0.15
18.554,-0.13,0.03,0.01,0.14
18.564,-0.14,0.03,-0.00,0.14
18.574,-0.14,0.02,-0.01,0.14
18.584,-0.13,0.04,-0.05,0.14
18.594,-0.15,0.05,-0.07,0.18
18.604,-0.17,0.01,-0.12,0.20
18.614,-0.16,0.00,-0.11,0.19
18.624,-0.15,0.01,-0.06,0.17
18.634,-0.15,-0.02,-0.01,0.15
18.644,-0.11,-0.03,0.02,0.12
18.654,-0.11,-0.02,0.00,0.11
18.664,-0.12,-0.01,-0.07,0.13
18.674,-0.17,0.02,-0.13,0.22
18.684,-0.17,0.04,-0.10,0.20
18.694,-0.15,0.03,-0.01,0.15
18.704,-0.13,0.01,0.04,0.14
18.714,-0.14,0.04,0.01,0.15
18.724,-0.15,0.05,-0.00,0.16
18.734,-0.11,0.02,0.03,0.12
18.744,-0.07,0.01,0.02,0.07
18.754,-0.01,0.06,0.06,0.09
18.764,0.00,0.04,0.02,0.04
18.774,-0.04,-0.02,-0.14,0.15
18.784,-0.08,0.06,-0.11,0.15
18.794,-0.19,0.10,-0.08,0.22
18.804,-0.14,0.13,-0.05,0.20
18.814,-0.14,0.11,0.00,0.18
18.824,-0.11,0.06,0.01,0.12
18.834,-0.08,0.02,0.02,0.08
18.844,-0.04,-0.02,0.02,0.05
18.854,0.02,-0.07,-0.00,0.08
18.864,0.01,-0.07,-0.06,0.10
18.874,-0.01,-0.10,-0.06,0.12
18.885,-0.05,-0.13,0.03,0.14
18.894,-0.18,-0.10,0.10,0.23
18.904,-0.22,-0.10,-0.01,0.24
18.914,-0.22,-0.10,-0.09,0.26
18.925,-0.18,-0.09,-0.06,0.21
18.934,-0.12,-0.07,-0.01,0.14
18.944,-0.10,-0.03,0.01,0.10
18.954,-0.09,-0.03,0.02,0.10
18.964,-0.11,-0.05,0.03,0.12
18.974,-0.09,-0.05,0.02,0.10
18.984,-0.07,-0.04,-0.01,0.08
18.994,-0.05,-0.03,-0.03,0.07
19.004,-0.08,-0.05,-0.02,0.09
19.014,-0.11,-0.05,0.01,0.12
19.025,-0.13,-0.05,-0.00,0.14
19.034,-0.10,-0.05,-0.02,0.11
19.044,-0.10,-0.04,-0.04,0.11
19.054,-0.10,-0.04,-0.05,0.12
19.065,-0.13,-0.04,-0.04,0.15
19.074,-0.16,-0.03,-0.05,0.17
19.084,-0.14,-0.01,-0.07,0.16
19.094,-0.12,0.01,-0.06,0.14
19.105,-0.11,0.04,-0.07,0.13
19.114,-0.10,0.03,-0.04,0.11
19.124,-0.09,0.06,-0.00,0.11
19.134,-0.08,0.04,-0.01,0.09
19.145,-0.09,0.04,0.02,0.10
19.154,-0.07,0.05,-0.00,0.08
19.165,-0.09,0.09,-0.03,0.13
19.174,-0.11,0.06,-0.05,0.14
19.185,-0.11,0.08,-0.09,0.16
19.194,-0.11,0.10,-0.08,0.16
19.205,-0.10,0.08,-0.05,0.14
19.214,-0.10,0.11,-0.05,0.16
19.225,-0.11,0.11,-0.03,0.16
19.235,-0.13,0.10,-0.01,0.16
19.245,-0.09,0.09,-0.00,0.13
19.255,-0.09,0.07,-0.00,0.11
19.264,-0.08,0.05,-0.02,0.09
19.275,-0.11,0.05,-0.03,0.12
19.285,-0.11,0.04,-0.04,0.12
19.295,-0.14,0.05,-0.08,0.17
19.305,-0.12,0.06,-0.07,0.16
19.315,-0.11,0.06,-0.03,0.13
19.325,-0.09,0.04,0.02,0.10
19.335,-0.11,0.01,0.02,0.12
19.345,-0.11,0.01,-0.02,0.11
19.355,-0.13,-0.02,-0.07,0.15
19.365,-0.14,-0.01,-0.09,0.17
19.375,-0.10,0.01,-0.07,0.13
19.385,-0.06,0.00,-0.03,0.07
19.395,-0.06,0.00,0.00,0.06
19.405,-0.06,-0.02,0.02,0.06
19.415,-0.07,-0.01,-0.03,0.08
19.425,-0.13,0.01,-0.14,0.19
19.435,-0.16,0.01,-0.09,0.18
19.445,-0.11,0.00,0.05,0.12
19.455,-0.12,-0.01,0.02,0.12
19.465,-0.14,-0.07,0.03,0.16
19.475,-0.12,-0.07,0.04,0.15
19.485,-0.16,-0.03,-0.09,0.19
19.495,-0.18,-0.03,-0.20,0.27
19.505,-0.14,-0.05,-0.14,0.20
19.515,-0.10,-0.02,-0.03,0.10
19.525,-0.07,-0.02,0.03,0.08
19.535,-0.10,-0.05,-0.00,0.11
19.545,-0.13,-0.08,-0.03,0.16
19.555,-0.12,-0.10,0.04,0.16
19.565,-0.08,-0.04,0.09,0.13
19.575,-0.04,-0.02,0.09,0.10
19.585,-0.03,-0.00,0.04,0.05
19.595,-0.07,-0.00,-0.03,0.07
19.605,-0.14,0.02,-0.07,0.16
19.615,-0.15,0.04,-0.09,0.18
19.625,-0.16,0.01,-0.06,0.17
19.635,-0.16,0.02,-0.05,0.17
19.645,-0.12,0.01,-0.05,0.13
19.655,-0.10,-0.02,-0.06,0.12
19.665,-0.06,-0.00,-0.03,0.06
19.675,-0.04,-0.01,-0.01,0.04
19.685,-0.06,-0.01,0.03,0.06
19.695,-0.07,-0.00,0.01,0.07
19.705,-0.07,0.01,0.05,0.09
19.715,-0.11,-0.01,0.11,0.16
19.725,-0.14,0.00,0.03,0.15
19.735,-0.16,0.01,-0.09,0.18
19.745,-0.13,0.03,-0.12,0.18
19.755,-0.12,0.04,-0.10,0.16
19.765,-0.10,0.04,-0.09,0.14
19.775,-0.11,0.04,-0.06,0.13
19.785,-0.12,0.01,-0.00,0.13
19.795,-0.14,0.02,0.02,0.14
19.805,-0.12,0.00,0.02,0.13
19.815,-0.09,0.01,0.02,0.09
19.825,-0.08,-0.00,0.02,0.09
19.835,-0.09,-0.02,0.03,0.10
19.845,-0.10,-0.02,0.01,0.11
19.855,-0.08,-0.02,-0.02,0.08
19.865,-0.04,-0.02,-0.05,0.07
19.875,-0.04,-0.00,-0.05,0.06
19.885,-0.04,-0.01,-0.00,0.04
19.895,-0.09,-0.00,0.00,0.09
19.905,-0.13,-0.01,0.03,0.14
19.915,-0.15,0.01,-0.02,0.16
19.925,-0.15,0.02,-0.07,0.17
19.935,-0.12,0.02,-0.10,0.16
19.945,-0.06,-0.00,-0.07,0.10
19.955,-0.07,-0.01,-0.03,0.08
19.965,-0.09,0.01,-0.00,0.09
19.975,-0.08,0.02,-0.00,0.09
19.983,-0.10,0.01,0.01,0.10
19.993,-0.12,0.01,0.01,0.12
20.003,-0.15,0.04,0.01,0.16
20.013,-0.16,0.04,0.01,0.17
20.023,-0.13,0.03,-0.01,0.13
20.033,-0.11,0.00,-0.02,0.11
20.043,-0.07,-0.00,-0.03,0.08
20.053,-0.05,-0.02,-0.05,0.07
20.063,-0.06,0.00,-0.03,0.07
20.073,-0.11,-0.00,-0.01,0.11
20.083,-0.13,-0.01,-0.01,0.13
20.093,-0.14,0.01,0.00,0.14
20.103,-0.15,0.01,0.03,0.15
20.113,-0.15,0.00,0.02,0.15
20.123,-0.10,0.01,0.03,0.11
20.133,-0.05,0.03,0.00,0.06
20.143,-0.04,0.01,-0.01,0.04
20.153,-0.05,0.01,-0.01,0.05
20.163,-0.06,0.00,0.03,0.07
20.173,-0.09,-0.02,0.02,0.09
20.183,-0.13,-0.03,0.02,0.14
20.193,-0.14,-0.04,-0.00,0.15
20.203,-0.12,-0.06,-0.05,0.15
20.213,-0.13,-0.04,-0.06,0.14
20.223,-0.09,-0.04,-0.04,0.10
20.233,-0.06,-0.04,-0.03,0.08
20.243,-0.06,-0.05,0.02,0.08
20.253,-0.08,-0.03,-0.00,0.08
20.263,-0.10,-0.00,-0.09,0.13
20.273,-0.15,0.02,-0.17,0.23
20.283,-0.16,0.01,-0.07,0.17
20.293,-0.12,0.04,0.02,0.13
20.303,-0.18,0.02,-0.02,0.18
20.313,-0.20,-0.01,-0.04,0.21
20.323,-0.17,-0.02,0.02,0.17
20.333,-0.20,-0.01,-0.03,0.20
20.347,-0.21,0.02,-0.14,0.25
20.357,-0.16,0.03,-0.13,0.21
20.367,-0.11,0.05,0.00,0.12
20.377,-0.07,0.05,0.10,0.13
20.387,-0.04,0.02,0.09,0.10
20.397,-0.02,-0.01,0.06,0.07
20.407,0.01,-0.01,0.05,0.06
20.417,0.03,0.03,0.04,0.05
20.427,0.00,0.03,0.02,0.03
20.437,-0.08,0.05,0.00,0.09
20.447,-0.12,0.05,-0.02,0.13
20.457,-0.11,0.07,-0.02,0.13
20.467,-0.14,0.05,0.01,0.15
20.477,-0.15,0.06,-0.02,0.16
20.487,-0.17,0.06,-0.07,0.20
20.497,-0.18,0.00,-0.04,0.19
20.507,-0.04,0.02,-0.09,0.10
20.517,-0.02,-0.02,0.11,0.12
20.527,0.10,-0.12,0.15,0.22
20.537,0.15,-0.12,0.12,0.22
20.547,-0.10,-0.09,0.11,0.17
20.557,-0.14,-0.14,-0.03,0.20
20.567,-0.06,-0.11,-0.10,0.16
20.577,0.01,-0.08,-0.08,0.11
20.587,0.01,-0.01,-0.01,0.02
20.597,0.09,0.01,0.13,0.16
20.607,0.06,-0.03,0.17,0.19
20.617,0.14,-0.02,0.17,0.22
20.627,0.24,0.01,0.36,0.43
20.637,0.28,0.05,0.47,0.55
20.647,0.16,0.06,0.49,0.52
20.657,-0.02,-0.07,0.54,0.54
20.667,-0.02,-0.07,0.50,0.51
20.677,-0.03,0.00,0.50,0.50
20.687,-0.15,0.03,0.55,0.57
20.697,-0.32,-0.07,0.72,0.79
20.707,-0.55,-0.37,0.78,1.02
20.717,-0.78,-0.45,0.72,1.16
20.727,-0.87,-0.26,0.67,1.13
20.737,-0.66,-0.07,0.69,0.96
20.747,-0.48,-0.02,0.71,0.85
20.757,-0.40,-0.13,0.76,0.87
20.767,-0.52,-0.22,0.75,0.94
20.777,-0.60,-0.16,0.70,0.93
20.787,-0.42,0.02,0.62,0.75
20.797,-0.29,0.13,0.51,0.60
20.807,-0.27,0.00,0.33,0.43
20.817,-0.28,-0.21,0.13,0.37
20.827,-0.24,-0.28,-0.01,0.37
20.837,-0.26,-0.18,-0.25,0.40
20.847,-0.32,-0.11,-0.40,0.52
20.857,-0.38,-0.10,-0.39,0.55
20.867,-0.27,-0.03,-0.16,0.32
20.877,-0.12,0.04,0.19,0.23
20.887,-0.14,0.09,0.40,0.43
20.897,-0.36,0.03,0.35,0.51
20.907,-0.55,-0.05,0.34,0.65
20.917,-0.57,-0.07,0.33,0.66
20.927,-0.50,-0.08,0.26,0.57
20.937,-0.43,-0.11,0.25,0.51
20.947,-0.26,-0.15,0.14,0.33
20.957,0.01,-0.13,0.21,0.25
20.967,0.01,0.01,0.40,0.40
20.977,-0.04,0.21,0.27,0.34
20.987,-0.10,0.23,-0.17,0.30
20.997,-0.23,0.17,-0.40,0.49
21.007,-0.09,0.08,-0.41,0.43
21.017,0.23,-0.07,-0.34,0.42
21.027,0.43,-0.19,-0.28,0.55
21.037,0.51,-0.25,-0.39,0.69
21.047,0.47,-0.29,-0.41,0.69
21.057,0.45,-0.35,-0.38,0.69
21.067,0.62,-0.30,-0.33,0.77
21.077,0.66,-0.02,-0.22,0.69
21.087,0.59,0.16,-0.05,0.62
21.097,0.61,0.15,-0.01,0.63
21.107,0.59,0.10,-0.05,0.60
21.117,0.42,-0.04,-0.02,0.42
21.127,0.24,-0.18,-0.16,0.34
21.137,0.05,-0.21,-0.38,0.43
21.147,0.05,-0.24,-0.58,0.63
21.157,0.06,-0.24,-0.54,0.59
21.167,0.11,-0.19,-0.24,0.32
21.177,0.19,-0.26,-0.02,0.33
21.187,0.21,-0.30,-0.29,0.47
21.197,0.45,-0.17,-0.34,0.59
21.207,0.59,-0.07,-0.41,0.72
21.217,0.51,-0.24,-0.43,0.71
21.227,0.34,-0.57,-0.28,0.72
21.237,0.22,-0.69,0.04,0.73
21.247,0.20,-0.51,0.20,0.58
21.257,0.77,0.08,0.32,0.84
21.267,1.07,0.14,0.68,1.27
21.277,1.66,-0.12,1.36,2.15
21.287,1.49,-0.77,1.15,2.04
21.297,0.77,-0.80,0.90,1.43
21.307,0.22,-0.49,0.54,0.76
21.317,-0.12,-0.31,0.34,0.48
21.327,-0.29,-0.47,0.23,0.60
21.337,-0.24,-0.74,0.26,0.82
21.347,0.03,-0.97,0.27,1.00
21.357,0.40,-0.98,0.11,1.07
21.367,0.83,-0.85,-0.03,1.19
21.377,1.00,-0.71,-0.10,1.24
21.387,1.07,-0.61,-0.06,1.23
21.397,0.88,-0.57,0.15,1.06
21.407,0.74,-0.63,0.32,1.02
21.417,0.46,-0.56,0.32,0.79
21.427,0.39,0.02,0.44,0.59
21.437,0.18,0.18,0.17,0.31
21.447,-0.15,0.40,0.19,0.47
21.457,-0.22,0.44,0.31,0.58
21.467,-0.23,0.44,0.49,0.70
21.477,-0.19,0.28,0.63,0.72
21.487,-0.09,0.05,0.67,0.68
21.498,-0.09,-0.17,0.65,0.68
21.508,-0.18,-0.33,0.56,0.68
21.517,-0.20,-0.43,0.67,0.82
21.528,-0.39,-0.86,0.79,1.23
21.538,-0.43,-1.15,0.83,1.49
21.548,-0.31,-1.14,0.90,1.49
21.558,-0.04,-1.10,0.89,1.41
21.568,0.20,-1.04,0.70,1.26
21.577,0.44,-0.88,0.50,1.10
21.588,0.70,-0.67,0.44,1.06
21.598,0.67,-0.65,0.31,0.98
21.607,0.42,-0.67,0.15,0.80
21.618,0.12,-0.60,-0.02,0.61
21.628,-0.22,-0.59,0.08,0.64
21.638,-0.35,-0.44,0.43,0.70
21.648,-0.16,-0.25,0.53,0.61
21.658,-0.34,-0.33,0.36,0.60
21.667,-0.54,-0.43,0.21,0.72
21.678,-0.44,-0.21,0.00,0.49
21.688,-0.27,0.16,-0.19,0.37
21.698,-0.21,0.44,-0.34,0.59
21.708,-0.26,0.49,-0.49,0.74
21.718,-0.36,0.34,-0.36,0.61
21.728,-0.54,0.18,-0.07,0.58
21.738,-0.68,-0.03,0.28,0.74
21.748,-0.72,-0.22,0.55,0.93
21.758,-0.67,-0.25,0.46,0.85
21.768,-0.53,-0.17,0.30,0.64
21.778,-0.45,-0.18,0.22,0.53
21.788,-0.24,-0.32,0.34,0.52
21.797,-0.02,-0.48,0.52,0.70
21.808,0.06,-0.76,0.51,0.91
21.818,0.08,-0.81,0.39,0.90
21.828,0.01,-0.61,0.35,0.70
21.838,-0.10,-0.36,0.17,0.41
21.848,-0.15,-0.21,0.08,0.27
21.858,-0.18,-0.19,0.26,0.37
21.868,-0.25,-0.25,0.46,0.58
21.878,-0.36,-0.34,0.43,0.66
21.888,-0.45,-0.36,0.21,0.62
21.898,-0.52,-0.34,-0.03,0.63
21.908,-0.52,-0.33,-0.18,0.64
21.918,-0.48,-0.31,-0.15,0.59
21.928,-0.37,-0.31,0.11,0.50
21.938,-0.59,-0.45,0.26,0.78
21.948,-0.69,-0.55,0.23,0.91
21.958,-0.81,-0.50,0.11,0.95
21.968,-0.84,-0.29,-0.12,0.89
21.978,-0.65,-0.27,-0.26,0.75
21.988,-0.35,-0.45,-0.24,0.61
21.998,0.10,-0.61,-0.25,0.67
22.008,0.52,-0.68,-0.19,0.88
22.018,0.77,-0.71,-0.05,1.05
22.028,0.78,-0.76,0.07,1.09
22.038,0.74,-0.86,0.17,1.15
22.048,0.75,-0.91,0.20,1.19
22.058,0.77,-0.91,0.20,1.20
22.068,0.74,-0.88,0.22,1.17
22.078,0.69,-0.77,0.15,1.04
22.088,0.66,-0.51,0.24,0.87
22.098,0.46,-0.41,0.56,0.84
22.108,0.12,-0.57,0.59,0.82
22.118,0.10,-0.59,0.40,0.72
22.128,0.33,-0.45,0.31,0.64
22.138,0.48,-0.30,0.31,0.65
22.148,0.44,-0.27,0.34,0.62
22.158,0.33,-0.31,0.27,0.53
22.168,0.28,-0.35,0.23,0.50
22.178,0.13,-0.34,0.23,0.43
22.188,-0.15,-0.30,0.23,0.40
22.198,-0.33,-0.31,0.26,0.52
22.208,-0.43,-0.27,0.31,0.59
22.218,-0.35,-0.26,0.21,0.48
22.228,-0.09,-0.38,0.27,0.48
22.238,0.17,-0.55,0.26,0.63
22.248,0.45,-0.61,0.04,0.75
22.258,0.65,-0.47,-0.17,0.82
22.268,0.68,-0.34,-0.18,0.79
22.278,0.54,-0.31,-0.12,0.64
22.288,0.34,-0.38,0.03,0.51
22.298,0.18,-0.43,0.14,0.48
22.308,0.15,-0.42,0.24,0.51
22.318,0.11,-0.39,0.18,0.44
22.328,-0.12,-0.30,0.08,0.33
22.338,-0.22,-0.23,0.14,0.35
22.348,-0.21,-0.24,0.22,0.39
22.358,-0.21,-0.30,0.21,0.42
22.368,-0.18,-0.33,0.16,0.41
22.378,-0.13,-0.26,0.17,0.33
22.388,-0.08,-0.18,0.10,0.22
22.398,-0.05,-0.13,0.03,0.14
22.408,-0.01,-0.12,0.01,0.12
22.418,-0.01,-0.14,-0.07,0.16
22.428,-0.03,-0.11,-0.17,0.20
22.438,-0.06,-0.04,-0.19,0.21
22.448,-0.21,-0.01,-0.09,0.23
22.458,-0.39,-0.01,0.03,0.39
22.468,-0.41,-0.09,0.18,0.46
22.478,-0.37,-0.19,0.23,0.47
22.488,-0.29,-0.15,0.17,0.37
22.498,-0.18,-0.07,0.16,0.25
22.508,-0.23,-0.02,0.20,0.31
22.518,-0.25,0.02,0.23,0.35
22.528,-0.32,0.00,0.24,0.40
22.538,-0.38,-0.04,0.17,0.42
22.548,-0.34,-0.03,-0.03,0.34
22.558,-0.31,0.16,-0.13,0.38
22.568,-0.28,0.20,-0.02,0.34
22.578,-0.26,0.11,-0.03,0.29
22.588,-0.25,0.02,-0.00,0.25
22.598,-0.29,-0.04,-0.03,0.29
22.608,-0.33,-0.04,-0.07,0.34
22.618,-0.38,-0.03,-0.06,0.38
22.628,-0.34,-0.01,-0.04,0.34
22.638,-0.26,0.00,0.01,0.26
22.649,-0.24,0.02,0.02,0.24
