time,ax,ay,az,atotal
0.000,-0.02,-0.29,-0.11,0.31
0.010,-0.03,-0.10,-0.17,0.20
0.020,0.02,0.05,-0.22,0.22
0.030,0.13,0.14,-0.18,0.26
0.040,0.14,0.22,-0.14,0.29
0.050,0.01,0.26,-0.06,0.26
0.060,-0.10,0.19,-0.01,0.22
0.070,-0.18,0.15,0.07,0.24
0.080,-0.22,0.12,0.20,0.32
0.090,-0.22,0.13,0.28,0.38
0.100,-0.12,0.24,0.39,0.47
0.110,0.07,0.28,0.59,0.65
0.120,-0.09,0.06,0.50,0.51
0.130,-0.22,-0.02,0.16,0.27
0.140,-0.12,0.10,0.15,0.21
0.150,-0.10,0.22,0.16,0.29
0.160,-0.11,0.29,0.09,0.32
0.170,-0.06,0.27,-0.00,0.27
0.180,0.08,0.17,-0.03,0.19
0.190,0.20,0.10,-0.02,0.22
0.200,0.05,0.20,0.02,0.21
0.210,-0.04,0.16,0.09,0.19
0.220,-0.07,-0.03,0.26,0.27
0.230,-0.10,-0.20,0.34,0.41
0.240,-0.16,-0.22,0.38,0.47
0.250,-0.11,-0.37,0.51,0.64
0.260,0.08,-0.60,0.57,0.83
0.270,0.53,-0.74,0.46,1.02
0.280,0.92,-0.42,0.40,1.08
0.290,1.23,-0.10,0.40,1.30
0.300,1.26,0.23,0.34,1.32
0.310,0.94,-0.21,0.19,0.99
0.320,0.96,-0.70,0.01,1.19
0.330,0.81,-0.66,-0.06,1.05
0.340,0.30,-0.42,-0.13,0.53
0.350,-0.43,-0.21,-0.04,0.48
0.360,-0.80,-0.36,0.05,0.88
0.370,-0.43,-0.72,0.14,0.85
0.380,0.05,-0.94,0.18,0.96
0.390,0.26,-0.93,-0.04,0.97
0.400,0.72,-0.90,-0.55,1.27
0.410,1.75,-0.57,-0.92,2.06
0.420,2.46,-0.41,-1.39,2.86
0.430,1.89,-0.87,-1.79,2.74
0.440,1.49,-1.07,-1.66,2.47
0.450,2.64,-1.54,-1.10,3.25
0.460,0.99,-1.70,-0.80,2.12
0.470,-0.40,-1.38,-0.41,1.50
0.480,-1.04,-1.20,0.09,1.59
0.490,-1.40,-1.30,0.37,1.95
0.500,-1.50,-1.26,0.37,1.99
0.510,-1.17,-1.16,0.03,1.65
0.520,-0.73,-1.13,-0.45,1.41
0.530,-0.48,-1.15,-0.75,1.46
0.540,-0.47,-1.11,-0.55,1.33
0.550,-0.93,-0.91,-0.24,1.33
0.560,-1.38,-0.60,-0.14,1.51
0.570,-1.14,-0.51,0.17,1.26
0.580,-1.07,-0.33,-0.26,1.15
0.590,-1.39,-0.11,-0.97,1.70
0.600,-1.48,-0.01,-1.21,1.91
0.611,-1.25,0.07,-1.11,1.68
0.620,-1.17,0.18,-0.74,1.40
0.630,-0.95,0.20,-0.51,1.10
0.640,-0.16,-0.02,-0.29,0.33
0.650,0.30,-0.26,0.12,0.41
0.660,-0.17,-0.37,0.99,1.07
0.670,-0.86,-0.45,2.63,2.80
0.680,-1.32,0.84,1.54,2.20
0.690,-2.03,1.03,0.02,2.28
0.700,-2.69,-0.11,0.60,2.76
0.710,-1.91,0.48,0.90,2.17
0.720,-1.22,1.13,0.63,1.78
0.730,-0.64,0.65,0.75,1.18
0.740,0.08,0.86,0.43,0.96
0.750,-0.56,1.45,0.61,1.67
0.760,-0.53,1.30,1.33,1.94
0.770,-0.45,1.35,1.71,2.22
0.780,0.06,1.60,2.11,2.65
0.791,0.27,1.56,2.04,2.58
0.801,0.06,1.38,1.34,1.92
0.810,-0.23,1.25,0.73,1.46
0.820,-0.52,1.14,0.68,1.43
0.831,-0.80,1.06,1.19,1.78
0.841,-0.70,1.23,1.29,1.91
0.851,-0.62,1.44,1.06,1.89
0.860,-0.40,1.23,1.13,1.72
0.871,0.18,0.29,0.94,0.99
0.881,0.77,0.10,0.47,0.91
0.891,0.63,0.55,0.36,0.91
0.901,-0.06,0.42,0.80,0.91
0.911,-0.29,0.50,0.52,0.78
0.921,-0.55,0.45,-0.07,0.72
0.931,-0.62,0.38,-0.19,0.75
0.941,-0.71,0.99,0.02,1.22
0.951,-1.10,1.14,0.39,1.63
0.961,-1.01,0.84,0.36,1.37
0.971,-0.45,0.19,-0.16,0.51
0.981,-0.21,-0.46,-0.66,0.83
0.991,-0.16,-0.99,-0.67,1.21
1.001,-0.01,-0.80,-0.58,0.99
1.011,0.31,-0.46,-0.22,0.59
1.021,0.48,-0.31,0.15,0.59
1.031,0.59,-0.32,0.55,0.87
1.041,0.58,-0.32,0.83,1.07
1.051,0.35,-0.55,0.61,0.90
1.061,0.44,-1.11,0.47,1.28
1.071,0.60,-1.01,0.36,1.23
1.081,0.55,-0.64,0.76,1.13
1.091,0.38,-0.42,0.98,1.13
1.101,0.19,-0.33,0.91,0.98
1.111,-0.02,-0.20,0.95,0.97
1.121,-0.04,0.14,1.30,1.31
1.131,-0.17,0.53,1.68,1.77
1.141,-0.62,0.66,1.41,1.68
1.151,-0.46,0.08,0.85,0.97
1.161,0.17,-0.54,0.48,0.74
1.171,0.34,-0.64,0.34,0.80
1.181,-0.05,-0.37,0.49,0.62
1.191,-0.52,-0.14,0.65,0.84
1.201,-0.58,-0.02,0.71,0.92
1.211,-0.52,0.01,0.66,0.84
1.221,-0.31,0.01,0.62,0.70
1.231,-0.01,0.02,0.62,0.62
1.241,0.03,0.16,0.66,0.68
1.251,-0.01,0.47,0.64,0.79
1.261,-0.15,0.61,0.40,0.74
1.271,-0.39,0.50,-0.08,0.64
1.281,-0.47,0.30,0.11,0.57
1.291,-0.48,0.40,0.49,0.79
1.301,-0.55,0.49,0.59,0.94
1.311,-0.61,0.47,0.30,0.83
1.321,-0.70,0.56,0.08,0.90
1.331,-0.81,0.66,0.15,1.06
1.341,-0.83,0.68,0.15,1.08
1.351,-0.82,0.66,-0.05,1.05
1.361,-0.73,0.52,-0.18,0.92
1.371,-0.53,0.27,-0.14,0.61
1.381,-0.36,0.14,-0.10,0.40
1.391,-0.32,0.01,0.02,0.33
1.401,-0.28,-0.14,0.04,0.32
1.411,-0.10,-0.44,0.01,0.45
1.421,-0.04,-0.65,-0.25,0.69
1.431,-0.14,-0.72,-0.54,0.91
1.441,-0.09,-0.77,-0.52,0.94
1.451,0.05,-0.58,-0.25,0.63
1.461,0.00,-0.36,0.05,0.36
1.471,-0.25,-0.18,0.30,0.43
1.481,-0.39,-0.07,0.34,0.52
1.491,-0.21,0.26,0.19,0.39
1.501,-0.04,0.57,0.41,0.71
1.511,-0.08,0.58,0.60,0.84
1.521,-0.10,0.46,0.58,0.75
1.531,0.10,0.30,0.43,0.54
1.541,0.27,0.04,0.04,0.28
1.551,0.21,-0.04,-0.41,0.46
1.561,-0.03,0.25,0.07,0.27
1.571,-0.50,0.57,0.05,0.76
1.581,-0.56,0.82,0.49,1.11
1.591,-0.60,0.84,0.53,1.17
1.601,-0.59,0.62,0.21,0.88
1.611,-0.26,0.49,0.03,0.55
1.621,-0.09,0.24,-0.15,0.30
1.631,-0.08,-0.05,-0.31,0.32
1.641,0.11,-0.07,-0.31,0.33
1.651,0.41,0.49,-0.05,0.64
1.661,0.48,0.60,0.45,0.89
1.671,0.61,0.77,0.97,1.38
1.681,0.35,0.90,0.98,1.37
1.691,0.02,0.74,0.70,1.02
1.701,-0.12,0.48,0.42,0.65
1.711,-0.16,0.27,0.33,0.45
1.721,-0.20,0.30,0.31,0.48
1.731,-0.14,0.35,0.32,0.49
1.741,0.04,0.42,0.45,0.61
1.751,0.20,0.42,0.65,0.80
1.761,0.36,0.34,0.73,0.88
1.771,0.40,0.14,0.66,0.78
1.781,0.23,0.09,0.46,0.52
1.791,0.07,-0.01,0.31,0.32
1.801,-0.01,-0.09,0.22,0.23
1.811,-0.03,-0.11,0.17,0.20
1.821,-0.07,-0.12,0.19,0.23
1.831,-0.06,-0.12,0.25,0.28
1.841,-0.04,-0.07,0.25,0.26
1.851,0.00,-0.04,0.15,0.15
1.861,0.12,-0.03,-0.08,0.15
1.871,0.20,-0.08,-0.15,0.26
1.881,0.13,-0.10,-0.23,0.28
1.891,-0.02,-0.11,-0.28,0.30
1.901,-0.16,-0.06,-0.25,0.30
1.911,-0.12,0.03,-0.23,0.26
1.921,-0.13,0.10,-0.18,0.24
1.931,-0.10,0.17,-0.10,0.22
1.941,-0.13,0.22,-0.16,0.30
1.951,-0.13,0.23,-0.28,0.38
1.961,-0.12,0.30,-0.18,0.36
1.971,-0.11,0.40,-0.04,0.41
1.981,-0.13,0.52,0.08,0.54
1.991,-0.25,0.59,0.24,0.68
2.001,-0.20,0.53,0.27,0.63
2.011,-0.14,0.43,0.10,0.46
2.021,-0.22,0.29,-0.09,0.37
2.031,-0.34,0.22,-0.26,0.48
2.041,-0.26,0.19,-0.43,0.54
2.051,-0.06,0.17,-0.41,0.45
2.061,-0.01,0.23,-0.24,0.34
2.071,-0.06,0.34,-0.04,0.34
2.082,-0.09,0.29,0.14,0.34
2.091,-0.16,0.16,0.19,0.30
2.101,-0.15,0.05,0.14,0.21
2.111,-0.21,0.02,0.13,0.24
2.121,-0.27,0.12,0.22,0.36
2.131,-0.31,0.21,0.28,0.46
2.141,-0.35,0.21,0.31,0.52
2.152,-0.35,0.12,0.26,0.45
2.161,-0.09,-0.02,0.12,0.15
2.171,0.24,0.01,-0.03,0.24
2.181,0.27,0.12,0.11,0.31
2.192,0.14,0.24,0.39,0.48
2.202,0.00,0.30,0.56,0.64
2.211,-0.17,0.30,0.48,0.59
2.222,-0.20,0.28,0.31,0.46
2.232,-0.03,0.25,0.14,0.29
2.242,0.06,0.21,-0.07,0.23
2.252,-0.02,0.21,-0.11,0.23
2.262,-0.18,0.22,-0.01,0.28
2.271,-0.19,0.23,0.00,0.30
2.282,-0.12,0.22,-0.04,0.25
2.292,-0.10,0.04,-0.27,0.29
2.302,-0.25,-0.11,-0.37,0.46
2.312,-0.38,-0.10,-0.17,0.43
2.322,-0.44,-0.09,-0.15,0.48
2.332,-0.38,-0.03,-0.24,0.45
2.342,-0.27,0.05,-0.15,0.31
2.352,-0.27,0.11,-0.15,0.33
2.362,-0.15,0.07,-0.00,0.16
2.372,0.01,0.06,0.10,0.12
2.382,0.04,0.02,0.14,0.15
2.392,-0.00,-0.17,0.03,0.17
2.402,-0.11,-0.28,-0.26,0.39
2.412,-0.20,-0.37,-0.26,0.49
2.422,-0.24,-0.29,-0.14,0.40
2.432,-0.29,-0.00,-0.04,0.29
2.442,-0.32,0.17,0.12,0.38
2.452,-0.28,0.17,0.22,0.39
2.462,-0.26,0.11,0.16,0.33
2.472,-0.17,0.06,0.19,0.26
2.482,-0.17,0.03,0.26,0.31
2.492,-0.13,0.07,0.21,0.26
2.502,-0.09,0.19,0.26,0.34
2.512,-0.10,0.32,0.38,0.50
2.522,-0.16,0.31,0.33,0.48
2.532,-0.25,0.24,0.26,0.44
2.542,-0.34,0.19,0.22,0.44
2.552,-0.34,0.13,0.18,0.41
2.562,-0.42,0.09,0.09,0.44
2.572,-0.42,0.15,0.10,0.46
2.582,-0.24,0.23,0.23,0.40
2.592,-0.06,0.20,0.33,0.39
2.602,-0.02,0.18,0.34,0.38
2.612,-0.12,0.17,0.25,0.33
2.622,-0.25,0.17,0.10,0.32
2.632,-0.33,0.23,0.05,0.41
2.642,-0.31,0.26,0.10,0.41
2.652,-0.14,0.26,0.22,0.37
2.662,-0.01,0.18,0.24,0.30
2.672,-0.04,0.12,0.11,0.17
2.682,-0.06,0.10,0.04,0.12
2.692,-0.01,0.09,0.07,0.11
2.702,0.01,0.11,0.12,0.16
2.712,0.10,0.12,0.04,0.16
2.722,0.21,0.10,-0.01,0.24
2.732,0.28,0.15,0.10,0.33
2.742,0.16,0.12,0.05,0.20
2.752,0.02,0.07,-0.09,0.11
2.762,-0.15,0.06,-0.11,0.20
2.772,-0.26,0.08,-0.06,0.28
2.782,-0.27,0.09,-0.03,0.29
2.792,-0.22,0.07,-0.06,0.24
2.802,-0.14,0.09,-0.11,0.20
2.812,-0.10,0.11,-0.14,0.20
2.822,-0.05,0.16,-0.04,0.17
2.832,-0.08,0.15,0.05,0.18
2.842,-0.11,0.16,0.01,0.20
2.852,-0.11,0.17,0.01,0.20
2.862,-0.15,0.19,0.11,0.26
2.872,-0.21,0.17,0.12,0.30
2.882,-0.29,0.18,0.06,0.34
2.892,-0.38,0.19,-0.00,0.43
2.902,-0.42,0.14,-0.00,0.44
2.912,-0.37,0.14,0.01,0.39
2.922,-0.28,0.15,0.02,0.32
2.932,-0.07,0.13,0.06,0.16
2.942,0.05,0.10,0.11,0.16
2.952,-0.01,0.08,0.12,0.14
2.962,-0.07,0.06,0.13,0.16
2.972,-0.07,0.08,0.19,0.22
2.982,-0.10,0.08,0.21,0.25
2.992,-0.18,0.06,0.04,0.19
3.002,-0.18,0.04,-0.05,0.19
3.012,-0.10,0.00,-0.09,0.13
3.022,-0.06,0.05,-0.00,0.08
3.032,-0.04,0.11,0.15,0.19
3.042,-0.09,0.14,0.21,0.27
3.052,-0.14,0.13,0.23,0.30
3.062,-0.16,0.12,0.23,0.30
3.072,-0.22,0.12,0.16,0.29
3.082,-0.29,0.09,0.09,0.32
3.092,-0.29,0.07,0.13,0.33
3.102,-0.20,0.08,0.17,0.28
3.112,-0.17,0.10,0.17,0.26
3.122,-0.12,0.11,0.17,0.23
3.132,0.02,0.11,0.29,0.31
3.142,0.05,0.12,0.35,0.37
3.152,0.05,0.11,0.28,0.31
3.162,0.03,0.07,0.21,0.22
3.172,-0.03,0.04,0.13,0.14
3.182,-0.08,0.06,0.06,0.12
3.192,-0.14,0.04,-0.02,0.15
3.202,-0.17,0.05,-0.03,0.18
3.212,-0.15,0.04,-0.04,0.16
3.222,-0.09,0.06,-0.09,0.14
3.232,-0.09,0.09,-0.05,0.14
3.242,-0.08,0.11,0.02,0.13
3.252,-0.11,0.16,0.06,0.20
3.262,-0.16,0.18,0.11,0.27
3.272,-0.22,0.16,0.09,0.28
3.282,-0.21,0.11,-0.04,0.24
3.292,-0.21,0.10,-0.08,0.25
3.302,-0.21,0.12,-0.15,0.28
3.312,-0.20,0.08,-0.26,0.33
3.322,-0.12,0.08,-0.24,0.28
3.332,-0.04,0.12,-0.16,0.20
3.342,-0.06,0.16,-0.08,0.19
3.352,-0.15,0.17,-0.06,0.24
3.362,-0.21,0.21,-0.08,0.31
3.372,-0.21,0.24,-0.06,0.33
3.382,-0.26,0.24,0.05,0.36
3.392,-0.24,0.22,0.11,0.35
3.402,-0.16,0.22,0.04,0.28
3.412,-0.02,0.24,-0.03,0.24
3.422,0.08,0.16,0.03,0.18
3.432,0.15,0.13,0.05,0.21
3.442,0.18,0.11,0.04,0.21
3.452,0.12,0.07,0.10,0.17
3.462,-0.06,0.04,0.13,0.15
3.472,-0.19,0.02,0.06,0.20
3.482,-0.26,-0.05,-0.03,0.27
3.492,-0.26,-0.12,-0.01,0.28
3.502,-0.21,-0.13,-0.03,0.25
3.512,-0.24,-0.06,0.00,0.25
3.522,-0.25,0.01,0.19,0.31
3.532,-0.17,0.00,0.36,0.40
3.542,-0.13,0.05,0.28,0.31
3.552,-0.11,0.04,0.23,0.26
3.562,-0.08,0.05,0.22,0.24
3.573,-0.11,0.02,0.19,0.22
3.582,-0.13,0.04,0.17,0.21
3.592,-0.21,0.07,0.14,0.26
3.602,-0.22,0.07,0.09,0.25
3.612,-0.19,0.08,0.11,0.24
3.622,-0.18,0.06,0.12,0.22
3.632,-0.05,0.08,0.17,0.19
3.642,-0.00,0.06,0.22,0.23
3.653,-0.07,0.04,0.26,0.27
3.662,-0.11,0.05,0.26,0.29
3.673,-0.12,0.04,0.23,0.26
3.682,-0.07,0.03,0.23,0.25
3.692,-0.08,0.01,0.23,0.24
3.702,-0.15,0.01,0.20,0.25
3.712,-0.19,-0.01,0.12,0.22
3.723,-0.21,-0.06,0.11,0.24
3.733,-0.20,-0.06,0.10,0.23
3.742,-0.12,-0.02,0.02,0.13
3.753,-0.10,-0.02,-0.00,0.10
3.763,-0.10,0.01,-0.02,0.10
3.773,-0.07,0.07,-0.06,0.12
3.783,-0.10,0.05,-0.06,0.13
3.793,-0.16,0.07,0.03,0.17
3.803,-0.08,0.13,0.07,0.17
3.813,-0.03,0.17,0.01,0.17
3.823,-0.05,0.16,-0.07,0.18
3.833,-0.08,0.18,-0.06,0.20
3.843,-0.12,0.24,-0.02,0.27
3.853,-0.13,0.24,-0.02,0.27
3.863,-0.11,0.23,-0.04,0.26
3.873,-0.14,0.25,0.03,0.28
3.883,-0.07,0.28,0.05,0.29
3.893,-0.02,0.22,0.02,0.23
3.903,-0.05,0.17,-0.03,0.18
3.913,-0.12,0.15,-0.01,0.19
3.923,-0.18,0.16,0.01,0.24
3.933,-0.19,0.15,0.04,0.25
3.943,-0.15,0.16,0.08,0.23
3.953,-0.15,0.17,0.13,0.26
3.963,-0.15,0.15,0.16,0.27
3.973,-0.18,0.12,0.14,0.26
3.983,-0.21,0.07,0.15,0.27
3.993,-0.18,0.05,0.15,0.24
4.001,-0.11,-0.01,0.05,0.12
4.010,0.03,-0.04,-0.13,0.14
4.020,0.12,-0.07,-0.20,0.25
4.030,0.13,-0.08,-0.16,0.22
4.040,0.14,-0.04,-0.16,0.22
4.050,0.09,-0.00,-0.12,0.15
4.060,0.03,-0.04,-0.13,0.14
4.070,-0.05,-0.04,-0.15,0.17
4.080,-0.10,0.00,-0.15,0.18
4.090,-0.18,0.03,-0.15,0.24
4.100,-0.24,0.03,-0.17,0.30
4.110,-0.30,0.03,-0.13,0.33
4.120,-0.26,0.05,-0.07,0.27
4.130,-0.18,0.06,-0.08,0.21
4.140,-0.12,0.04,-0.14,0.18
4.150,-0.06,0.02,-0.14,0.16
4.160,-0.16,0.05,-0.06,0.18
4.170,-0.22,0.10,0.04,0.24
4.180,-0.23,0.13,0.13,0.29
4.190,-0.16,0.12,0.13,0.24
4.200,-0.17,0.07,0.10,0.21
4.210,-0.13,0.05,0.07,0.16
4.220,-0.11,0.04,0.05,0.13
4.230,-0.10,0.05,0.03,0.12
4.240,-0.07,0.04,0.06,0.10
4.250,-0.08,0.01,0.06,0.10
4.260,-0.11,-0.01,0.02,0.12
4.270,-0.10,0.00,0.02,0.10
4.280,-0.05,0.01,0.01,0.05
4.291,-0.05,-0.04,0.03,0.07
4.300,-0.06,0.00,0.05,0.08
4.310,-0.05,0.04,0.11,0.12
4.320,-0.06,0.05,0.13,0.15
4.330,-0.05,0.04,0.03,0.07
4.340,-0.06,0.01,-0.09,0.12
4.350,-0.08,0.03,-0.11,0.14
4.360,-0.08,0.08,-0.07,0.13
4.372,-0.10,0.10,-0.07,0.15
4.382,-0.13,0.08,-0.07,0.17
4.392,-0.14,0.07,-0.03,0.16
4.402,-0.16,0.10,-0.02,0.19
4.412,-0.15,0.09,-0.03,0.18
4.422,-0.14,0.06,-0.13,0.20
4.432,-0.09,0.04,-0.17,0.20
4.442,-0.07,0.07,-0.07,0.12
4.452,-0.06,0.14,0.06,0.16
4.462,-0.09,0.14,0.03,0.17
4.472,-0.10,0.08,-0.11,0.17
4.482,-0.07,0.03,-0.12,0.14
4.492,-0.08,0.08,-0.03,0.12
4.502,-0.09,0.10,0.03,0.13
4.512,-0.10,0.09,0.06,0.14
4.522,-0.08,0.09,0.05,0.13
4.532,-0.08,0.06,0.09,0.14
4.542,-0.09,0.04,0.06,0.12
4.552,-0.12,0.03,-0.03,0.12
4.562,-0.12,0.02,-0.05,0.13
4.572,-0.15,0.03,-0.01,0.16
4.582,-0.19,0.05,0.02,0.19
4.592,-0.14,0.06,0.08,0.17
4.602,-0.11,0.04,0.11,0.16
4.612,-0.13,0.01,0.09,0.16
4.622,-0.14,0.01,0.05,0.15
4.632,-0.12,0.01,-0.00,0.12
4.642,-0.11,0.00,0.02,0.11
4.652,-0.13,0.06,0.09,0.17
4.662,-0.14,0.08,0.06,0.17
4.672,-0.13,0.04,0.02,0.13
4.682,-0.10,0.02,-0.02,0.11
4.692,-0.13,0.03,-0.01,0.13
4.702,-0.16,0.05,0.01,0.17
4.712,-0.20,0.06,0.02,0.21
4.722,-0.18,0.05,0.04,0.19
4.732,-0.16,0.03,0.01,0.16
4.742,-0.17,-0.00,-0.02,0.17
4.752,-0.15,0.01,0.00,0.15
4.762,-0.07,0.02,0.04,0.08
4.772,-0.03,0.04,0.03,0.06
4.782,0.01,0.05,0.03,0.06
4.792,0.02,0.02,-0.00,0.03
4.802,-0.02,0.01,-0.05,0.05
4.812,-0.01,-0.00,-0.05,0.05
4.822,-0.05,0.04,-0.00,0.06
4.832,-0.10,0.05,0.01,0.11
4.842,-0.16,0.07,0.03,0.18
4.852,-0.22,0.09,0.07,0.25
4.862,-0.21,0.10,0.09,0.25
4.872,-0.21,0.08,0.04,0.23
4.882,-0.21,0.04,-0.02,0.22
4.892,-0.17,0.03,0.02,0.18
4.902,-0.10,0.04,0.01,0.11
4.912,-0.07,0.03,0.01,0.08
4.922,-0.06,-0.00,0.03,0.07
4.932,-0.03,0.00,0.02,0.04
4.942,-0.01,0.01,-0.01,0.02
4.952,-0.03,-0.00,-0.01,0.04
4.962,-0.11,0.01,-0.01,0.11
4.972,-0.14,0.02,-0.01,0.14
4.982,-0.17,0.07,0.01,0.19
4.992,-0.20,0.08,-0.01,0.22
5.002,-0.16,0.04,-0.04,0.17
5.012,-0.12,0.01,-0.04,0.13
5.022,-0.09,0.03,-0.06,0.11
5.032,-0.08,0.04,0.01,0.09
5.042,-0.07,0.06,0.04,0.10
5.052,-0.13,0.07,0.01,0.15
5.062,-0.15,0.05,-0.00,0.16
5.072,-0.12,0.03,-0.03,0.13
5.082,-0.08,0.01,-0.06,0.10
5.092,-0.02,0.00,-0.10,0.10
5.102,-0.05,0.00,-0.11,0.12
5.112,-0.11,0.05,-0.03,0.12
5.122,-0.18,0.09,0.06,0.21
5.132,-0.16,0.07,0.08,0.19
5.142,-0.10,0.03,0.07,0.13
5.152,-0.08,0.01,0.05,0.10
5.162,-0.11,0.00,0.03,0.11
5.172,-0.12,0.00,0.03,0.13
5.182,-0.10,-0.01,0.02,0.11
5.192,-0.07,0.01,-0.00,0.07
5.202,-0.04,-0.00,0.01,0.04
5.212,-0.03,-0.00,0.01,0.03
5.222,-0.08,0.02,0.01,0.08
5.232,-0.14,0.04,0.01,0.15
5.242,-0.19,0.04,0.02,0.20
5.252,-0.20,0.04,-0.00,0.20
5.262,-0.19,0.04,-0.01,0.20
5.272,-0.14,0.06,0.01,0.16
5.282,-0.13,0.07,0.04,0.15
5.292,-0.12,0.08,0.08,0.16
5.302,-0.10,0.08,0.12,0.17
5.312,-0.07,0.08,0.10,0.15
5.322,-0.06,0.08,0.03,0.11
5.332,-0.08,0.05,-0.03,0.10
5.342,-0.08,0.04,-0.08,0.12
5.352,-0.07,0.05,-0.09,0.13
5.362,-0.11,0.07,-0.11,0.17
5.373,-0.15,0.06,-0.12,0.20
5.382,-0.17,0.07,-0.12,0.22
5.392,-0.18,0.04,-0.13,0.23
5.402,-0.14,0.03,-0.12,0.18
5.412,-0.12,0.06,-0.08,0.16
5.423,-0.12,0.05,-0.06,0.14
5.432,-0.11,0.05,-0.07,0.14
5.442,-0.13,0.01,-0.06,0.14
5.452,-0.12,0.01,-0.07,0.14
5.462,-0.11,0.03,-0.07,0.13
5.472,-0.16,0.02,-0.06,0.17
5.482,-0.19,0.02,-0.03,0.19
5.493,-0.18,0.03,0.01,0.18
5.503,-0.20,0.04,0.01,0.20
5.513,-0.15,0.02,0.06,0.17
5.523,-0.12,0.02,0.07,0.14
5.532,-0.09,0.00,0.06,0.11
5.543,-0.09,-0.01,0.04,0.09
5.553,-0.08,0.01,0.04,0.09
5.562,-0.06,0.01,0.06,0.08
5.573,-0.04,0.01,0.05,0.07
5.583,-0.04,0.01,0.04,0.06
5.593,-0.04,0.02,0.05,0.06
5.603,-0.04,0.00,0.02,0.04
5.613,-0.05,-0.02,-0.00,0.05
5.623,-0.06,-0.01,0.00,0.07
5.633,-0.13,0.01,0.03,0.13
5.643,-0.15,0.03,0.02,0.16
5.653,-0.13,0.03,0.01,0.13
5.663,-0.09,0.04,-0.04,0.10
5.673,-0.10,0.00,-0.05,0.11
5.683,-0.10,0.01,-0.04,0.10
5.693,-0.07,0.04,-0.02,0.08
5.703,-0.05,0.05,-0.04,0.08
5.713,-0.06,0.05,-0.03,0.09
5.723,-0.11,0.07,-0.01,0.13
5.733,-0.17,0.11,-0.01,0.20
5.743,-0.15,0.12,-0.00,0.19
5.753,-0.10,0.09,-0.02,0.14
5.763,-0.12,0.06,-0.03,0.14
5.773,-0.17,0.04,-0.02,0.18
5.783,-0.17,0.04,-0.03,0.18
5.793,-0.15,0.02,-0.04,0.16
5.803,-0.08,-0.01,-0.02,0.08
5.813,-0.06,-0.02,0.01,0.06
5.823,-0.00,-0.03,0.01,0.03
5.833,-0.00,-0.03,-0.00,0.03
5.843,-0.04,-0.05,-0.03,0.07
5.853,-0.12,-0.05,-0.03,0.13
5.863,-0.18,-0.01,0.01,0.18
5.873,-0.20,0.03,0.02,0.20
5.883,-0.19,0.05,-0.01,0.20
5.893,-0.14,0.03,-0.02,0.15
5.903,-0.13,0.03,0.01,0.14
5.913,-0.11,0.02,0.00,0.11
5.923,-0.09,0.01,-0.02,0.09
5.933,-0.06,0.01,-0.07,0.10
5.943,-0.04,-0.03,-0.08,0.09
5.953,-0.04,-0.01,-0.03,0.05
5.963,-0.10,0.03,-0.01,0.10
5.973,-0.12,0.04,0.01,0.13
5.983,-0.05,0.00,-0.03,0.06
5.993,-0.00,-0.03,-0.09,0.10
6.003,-0.05,-0.01,-0.08,0.09
6.013,-0.11,0.01,-0.04,0.12
6.023,-0.16,0.02,-0.02,0.16
6.033,-0.12,0.05,-0.00,0.13
6.043,-0.16,0.01,-0.01,0.16
6.053,-0.17,0.00,-0.00,0.17
6.063,-0.14,0.03,0.03,0.14
6.073,-0.14,0.04,0.05,0.15
6.083,-0.13,0.05,0.00,0.14
6.093,-0.07,0.01,-0.05,0.09
6.103,-0.04,0.00,-0.01,0.04
6.113,-0.09,-0.00,0.02,0.10
6.123,-0.11,0.02,0.06,0.13
6.133,-0.12,0.04,0.09,0.15
6.143,-0.09,0.01,0.03,0.10
6.153,-0.11,0.01,-0.01,0.11
6.163,-0.14,0.03,0.04,0.15
6.173,-0.15,0.06,0.06,0.17
6.183,-0.11,0.01,0.03,0.12
6.193,-0.10,-0.02,-0.03,0.11
6.203,-0.07,-0.02,-0.07,0.10
6.213,-0.06,0.01,-0.08,0.10
6.223,-0.01,0.02,-0.07,0.07
6.233,-0.02,0.02,-0.09,0.10
6.243,-0.06,0.01,-0.10,0.11
6.253,-0.08,0.00,-0.10,0.13
6.263,-0.11,-0.00,-0.10,0.14
6.273,-0.11,0.00,-0.13,0.17
6.283,-0.13,0.03,-0.16,0.21
6.293,-0.18,0.03,-0.13,0.22
6.303,-0.15,0.05,-0.06,0.17
6.313,-0.14,0.09,0.04,0.17
6.323,-0.15,0.08,0.07,0.18
6.333,-0.18,0.06,0.03,0.19
6.343,-0.14,0.02,-0.01,0.14
6.353,-0.09,-0.01,-0.05,0.10
6.363,-0.07,-0.04,-0.10,0.13
6.373,-0.05,-0.04,-0.08,0.10
6.383,-0.06,-0.04,0.01,0.07
6.393,-0.09,-0.03,0.02,0.10
6.403,-0.07,-0.02,0.00,0.08
6.413,-0.06,-0.01,-0.01,0.07
6.423,-0.06,-0.00,-0.02,0.06
6.433,-0.07,0.01,-0.03,0.07
6.443,-0.12,0.03,0.02,0.12
6.453,-0.16,0.03,0.03,0.17
6.463,-0.18,0.03,0.03,0.19
6.473,-0.13,0.01,0.01,0.13
6.483,-0.11,-0.01,0.00,0.11
6.493,-0.10,-0.02,-0.00,0.10
6.503,-0.09,-0.01,-0.03,0.09
6.513,-0.06,-0.01,-0.04,0.08
6.523,-0.03,0.00,-0.03,0.05
6.533,-0.02,0.04,-0.02,0.05
6.543,-0.05,0.05,-0.06,0.10
6.553,-0.08,0.04,-0.05,0.10
6.563,-0.11,0.02,-0.03,0.12
6.573,-0.09,-0.00,-0.07,0.11
6.583,-0.11,-0.02,-0.09,0.15
6.593,-0.16,0.02,-0.11,0.20
6.603,-0.22,0.03,-0.10,0.24
6.613,-0.28,0.04,-0.07,0.29
6.623,-0.26,0.05,-0.04,0.26
6.633,-0.21,0.03,0.00,0.22
6.643,-0.11,-0.00,0.03,0.11
6.653,-0.04,-0.01,0.04,0.06
6.663,-0.00,-0.01,0.01,0.02
6.673,0.02,-0.01,0.00,0.03
6.683,0.01,-0.01,0.00,0.02
6.693,-0.00,0.02,0.01,0.02
6.703,-0.08,0.03,0.03,0.09
6.713,-0.11,0.05,0.04,0.13
6.723,-0.15,0.06,0.04,0.17
6.733,-0.18,0.06,0.04,0.20
6.743,-0.16,0.07,-0.01,0.18
6.753,-0.17,0.07,-0.04,0.19
6.763,-0.15,0.05,-0.02,0.16
6.773,-0.09,0.04,-0.01,0.10
6.783,-0.06,0.03,-0.04,0.08
6.793,-0.03,-0.01,-0.05,0.06
6.804,-0.00,-0.04,-0.06,0.07
6.813,-0.01,-0.02,-0.01,0.03
6.824,-0.01,-0.01,0.03,0.03
6.833,-0.05,0.02,-0.01,0.05
6.843,-0.08,0.01,-0.02,0.09
6.853,-0.11,0.05,-0.04,0.13
6.863,-0.14,0.03,-0.04,0.15
6.873,-0.13,0.01,-0.00,0.13
6.883,-0.13,0.02,0.00,0.13
6.893,-0.14,0.02,0.01,0.14
6.903,-0.09,-0.02,-0.01,0.09
6.913,-0.08,-0.02,-0.01,0.08
6.923,-0.08,-0.00,-0.02,0.08
6.933,-0.16,0.01,-0.03,0.17
6.944,-0.18,0.02,-0.01,0.18
6.953,-0.16,0.03,-0.01,0.16
6.964,-0.14,0.04,0.01,0.15
6.973,-0.11,0.02,0.01,0.11
6.983,-0.05,0.02,-0.01,0.05
6.993,-0.04,0.01,-0.06,0.07
7.003,-0.06,0.02,-0.04,0.07
7.013,-0.11,0.05,0.02,0.12
7.024,-0.14,0.09,0.04,0.17
7.033,-0.14,0.09,0.07,0.18
7.044,-0.15,0.05,0.03,0.16
7.053,-0.09,0.02,-0.00,0.09
7.064,-0.05,0.01,0.00,0.05
7.074,-0.01,-0.02,-0.02,0.03
7.084,0.03,-0.03,-0.06,0.08
7.094,-0.01,-0.03,-0.06,0.07
7.103,-0.08,0.00,-0.06,0.10
7.114,-0.09,0.04,-0.07,0.12
7.124,-0.09,0.04,-0.11,0.15
7.134,-0.10,0.04,-0.11,0.15
7.144,-0.12,0.05,-0.09,0.15
7.154,-0.13,0.06,-0.07,0.16
7.164,-0.14,0.08,0.00,0.16
7.174,-0.10,0.05,-0.01,0.11
7.184,-0.08,0.02,-0.07,0.11
7.194,-0.11,-0.02,-0.11,0.16
7.204,-0.13,-0.01,-0.09,0.16
7.214,-0.15,0.01,-0.05,0.16
7.224,-0.16,0.01,0.02,0.16
7.234,-0.17,0.03,0.06,0.18
7.244,-0.15,0.04,0.09,0.17
7.254,-0.11,0.02,0.09,0.15
7.264,-0.09,0.01,0.06,0.11
7.274,-0.05,-0.03,0.02,0.06
7.284,-0.02,-0.04,-0.01,0.05
7.294,-0.02,-0.00,-0.03,0.04
7.304,-0.04,-0.01,-0.05,0.06
7.314,-0.07,-0.00,-0.07,0.10
7.324,-0.12,0.01,-0.05,0.13
7.334,-0.12,0.01,-0.05,0.13
7.344,-0.12,0.01,-0.04,0.13
7.354,-0.14,0.01,-0.03,0.14
7.364,-0.13,0.00,-0.03,0.14
7.374,-0.11,-0.01,-0.06,0.13
7.384,-0.07,-0.03,-0.06,0.10
7.394,-0.07,-0.02,-0.07,0.10
7.404,-0.10,-0.01,-0.09,0.13
7.414,-0.07,-0.02,-0.14,0.16
7.424,-0.08,-0.03,-0.13,0.16
7.434,-0.10,-0.04,-0.12,0.16
7.444,-0.13,-0.00,-0.08,0.15
7.454,-0.08,0.00,-0.04,0.09
7.464,-0.09,-0.02,-0.05,0.10
7.474,-0.13,0.00,0.01,0.13
7.484,-0.15,0.01,0.06,0.16
7.494,-0.14,0.03,0.05,0.15
7.504,-0.09,0.01,0.00,0.09
7.514,-0.05,-0.03,-0.04,0.07
7.524,-0.00,-0.04,-0.04,0.05
7.534,0.01,-0.01,-0.04,0.04
7.544,-0.01,0.00,-0.00,0.01
7.554,-0.10,0.00,-0.00,0.10
7.564,-0.16,0.04,-0.02,0.17
7.574,-0.18,0.06,0.00,0.19
7.584,-0.19,0.08,0.02,0.20
7.594,-0.21,0.07,-0.00,0.22
7.604,-0.20,0.04,-0.03,0.21
7.614,-0.13,-0.01,-0.07,0.15
7.624,-0.09,-0.03,-0.09,0.13
7.634,-0.05,-0.02,-0.06,0.08
7.644,-0.02,-0.04,-0.07,0.08
7.654,-0.01,-0.04,-0.04,0.06
7.664,-0.03,-0.04,-0.07,0.08
7.674,-0.01,-0.04,-0.08,0.09
7.684,-0.01,-0.03,-0.10,0.11
7.694,0.01,-0.00,-0.08,0.09
7.704,-0.04,0.01,-0.07,0.08
7.714,-0.12,0.01,-0.06,0.13
7.724,-0.14,-0.01,-0.03,0.14
7.734,-0.15,-0.03,-0.05,0.16
7.744,-0.13,-0.03,-0.03,0.14
7.754,-0.13,-0.01,-0.01,0.13
7.764,-0.15,0.00,-0.02,0.15
7.774,-0.14,-0.00,-0.00,0.14
7.784,-0.11,0.01,0.04,0.12
7.794,-0.09,-0.00,0.06,0.11
7.804,-0.11,0.00,0.07,0.13
7.814,-0.12,-0.00,0.08,0.14
7.824,-0.14,-0.00,0.06,0.15
7.834,-0.18,0.03,0.01,0.18
7.844,-0.19,0.04,-0.00,0.19
7.854,-0.16,0.05,0.03,0.17
7.864,-0.11,0.08,0.05,0.14
7.874,-0.09,0.04,0.06,0.11
7.884,-0.06,0.02,0.06,0.08
7.894,-0.07,0.02,0.04,0.08
7.904,-0.06,-0.01,0.00,0.06
7.914,-0.07,0.00,-0.04,0.08
7.924,-0.05,0.02,-0.06,0.08
7.934,-0.03,0.04,-0.07,0.08
7.944,-0.05,0.05,-0.08,0.11
7.954,-0.05,0.04,-0.11,0.13
7.964,-0.05,0.02,-0.14,0.15
7.974,-0.08,0.01,-0.16,0.18
7.984,-0.10,-0.00,-0.18,0.21
7.994,-0.10,-0.01,-0.16,0.19
8.005,-0.10,-0.01,-0.13,0.16
8.013,-0.14,0.01,-0.11,0.18
8.023,-0.14,-0.01,-0.13,0.20
8.033,-0.17,-0.03,-0.15,0.23
8.043,-0.16,-0.06,-0.12,0.21
8.053,-0.14,-0.06,-0.09,0.17
8.063,-0.12,-0.08,-0.10,0.17
8.073,-0.10,-0.07,-0.12,0.17
8.083,-0.17,-0.04,-0.13,0.22
8.093,-0.17,-0.05,-0.14,0.23
8.103,-0.16,-0.05,-0.10,0.20
8.113,-0.15,-0.03,-0.10,0.19
8.123,-0.12,-0.04,-0.08,0.15
8.133,-0.08,-0.04,-0.03,0.09
8.143,-0.05,0.00,0.01,0.05
8.153,-0.01,0.00,0.02,0.02
8.163,0.01,-0.01,-0.00,0.02
8.173,0.00,0.01,-0.01,0.02
8.183,-0.01,0.01,-0.03,0.03
8.193,-0.05,0.05,-0.00,0.07
8.203,-0.05,0.09,0.05,0.12
8.213,-0.08,0.08,0.04,0.12
8.223,-0.06,0.06,0.00,0.09
8.233,-0.05,0.04,-0.04,0.07
8.244,-0.06,0.03,-0.08,0.10
8.253,-0.07,-0.01,-0.07,0.10
8.263,-0.10,0.01,-0.07,0.13
8.273,-0.14,0.03,-0.06,0.15
8.283,-0.16,0.04,-0.04,0.17
8.293,-0.21,0.03,-0.04,0.21
8.303,-0.21,0.02,-0.02,0.21
8.313,-0.16,0.01,-0.01,0.16
8.323,-0.13,-0.00,0.02,0.13
8.333,-0.06,-0.01,0.03,0.07
8.343,-0.01,-0.02,0.03,0.04
8.353,0.01,-0.05,-0.03,0.06
8.363,-0.03,-0.05,-0.10,0.11
8.374,-0.07,-0.05,-0.09,0.13
8.384,-0.11,-0.03,-0.04,0.12
8.394,-0.16,0.00,0.01,0.16
8.404,-0.16,0.03,0.00,0.17
8.414,-0.13,0.03,-0.01,0.13
8.424,-0.12,0.01,0.05,0.13
8.434,-0.06,-0.02,0.06,0.09
8.444,-0.09,-0.04,-0.00,0.10
8.454,-0.13,-0.07,-0.00,0.15
8.465,-0.16,-0.06,0.02,0.17
8.474,-0.15,-0.03,0.05,0.16
8.485,-0.12,-0.02,0.06,0.14
8.495,-0.09,-0.01,0.05,0.11
8.505,-0.05,-0.01,0.02,0.05
8.515,-0.05,-0.01,-0.01,0.05
8.525,-0.08,-0.02,-0.05,0.09
8.535,-0.13,-0.00,-0.05,0.14
8.545,-0.16,0.00,0.00,0.16
8.555,-0.15,0.02,0.04,0.15
8.565,-0.11,0.01,0.04,0.11
8.575,-0.02,0.03,0.03,0.05
8.585,0.00,0.01,0.01,0.02
8.595,-0.00,0.04,-0.00,0.04
8.605,-0.03,0.06,-0.02,0.07
8.615,-0.07,0.04,-0.03,0.08
8.625,-0.11,0.05,-0.05,0.13
8.635,-0.14,0.07,-0.04,0.16
8.645,-0.15,0.06,-0.03,0.16
8.655,-0.15,0.05,-0.06,0.17
8.665,-0.16,0.05,-0.10,0.20
8.675,-0.08,0.05,-0.08,0.13
8.685,-0.08,0.04,-0.04,0.10
8.695,-0.05,0.06,-0.03,0.09
8.705,-0.04,0.04,-0.03,0.06
8.715,-0.04,0.02,-0.03,0.05
8.725,-0.06,-0.02,-0.07,0.10
8.735,-0.07,-0.00,-0.08,0.10
8.745,-0.11,0.02,-0.00,0.11
8.755,-0.16,0.04,0.01,0.16
8.765,-0.15,0.02,0.01,0.16
8.775,-0.11,0.00,-0.01,0.11
8.785,-0.06,-0.01,-0.03,0.07
8.795,-0.04,-0.04,-0.02,0.06
8.805,-0.05,-0.05,-0.03,0.08
8.815,-0.02,-0.01,-0.03,0.04
8.825,-0.07,0.02,0.02,0.08
8.835,-0.11,0.04,0.03,0.12
8.845,-0.16,0.05,0.02,0.16
8.855,-0.15,0.04,-0.02,0.16
8.865,-0.09,-0.00,-0.05,0.10
8.875,-0.07,-0.06,-0.08,0.12
8.885,-0.06,-0.05,-0.07,0.10
8.895,-0.06,-0.06,-0.06,0.10
8.905,-0.08,-0.06,-0.04,0.10
8.915,-0.11,-0.01,-0.01,0.11
8.925,-0.14,0.04,0.01,0.15
8.935,-0.13,0.05,0.03,0.14
8.945,-0.09,0.04,0.02,0.10
8.955,-0.07,0.03,-0.02,0.08
8.965,-0.05,0.03,-0.03,0.07
8.975,-0.04,0.05,-0.04,0.07
8.985,-0.07,0.04,-0.05,0.10
8.995,-0.10,0.03,-0.08,0.13
9.005,-0.12,0.06,-0.08,0.16
9.015,-0.13,0.06,-0.03,0.14
9.025,-0.12,0.08,-0.04,0.15
9.035,-0.09,0.08,-0.06,0.13
9.045,-0.06,0.05,-0.04,0.09
9.055,-0.07,0.03,-0.06,0.09
9.065,-0.08,0.01,-0.09,0.12
9.075,-0.07,-0.02,-0.10,0.12
9.085,-0.10,-0.05,-0.10,0.15
9.095,-0.14,-0.05,-0.07,0.17
9.105,-0.13,-0.07,-0.06,0.16
9.115,-0.12,-0.07,-0.06,0.15
9.125,-0.06,-0.07,-0.05,0.10
9.135,-0.00,-0.03,-0.02,0.04
9.145,-0.05,-0.03,-0.04,0.07
9.155,-0.08,-0.04,-0.10,0.14
9.165,-0.10,-0.04,-0.10,0.15
9.175,-0.14,-0.05,-0.09,0.18
9.185,-0.22,-0.05,-0.08,0.24
9.195,-0.21,-0.05,-0.07,0.23
9.205,-0.17,-0.01,-0.06,0.18
9.215,-0.16,0.02,0.02,0.16
9.225,-0.11,0.03,0.04,0.12
9.235,-0.06,0.03,0.00,0.07
9.245,-0.02,0.01,-0.02,0.03
9.255,0.01,-0.02,-0.02,0.03
9.265,0.00,-0.02,0.01,0.02
9.275,-0.10,-0.02,-0.01,0.10
9.285,-0.18,-0.01,0.01,0.18
9.295,-0.18,-0.04,0.02,0.18
9.305,-0.13,-0.04,0.03,0.14
9.315,-0.08,-0.06,0.07,0.12
9.325,-0.08,-0.06,0.05,0.11
9.335,-0.03,-0.07,0.04,0.08
9.345,-0.05,-0.07,0.02,0.09
9.355,-0.08,-0.02,-0.01,0.09
9.365,-0.11,-0.00,-0.01,0.11
9.375,-0.16,-0.02,-0.04,0.16
9.385,-0.18,-0.03,-0.04,0.18
9.395,-0.16,-0.06,-0.04,0.18
9.405,-0.09,-0.08,-0.04,0.12
9.415,-0.02,-0.10,-0.00,0.10
9.425,-0.01,-0.07,0.01,0.07
9.435,-0.04,-0.02,0.08,0.09
9.445,-0.09,0.02,0.08,0.12
9.455,-0.12,-0.00,0.03,0.13
9.465,-0.15,-0.04,-0.03,0.16
9.475,-0.17,-0.08,-0.08,0.20
9.485,-0.16,-0.11,-0.07,0.20
9.495,-0.16,-0.07,0.01,0.17
9.505,-0.10,-0.00,0.10,0.14
9.515,-0.07,0.06,0.13,0.16
9.525,-0.07,0.07,0.13,0.17
9.535,-0.06,0.05,0.08,0.11
9.545,-0.05,0.08,0.01,0.09
9.555,-0.09,0.05,0.01,0.11
9.565,-0.11,0.07,0.01,0.13
9.575,-0.13,0.07,0.05,0.16
9.585,-0.09,0.05,0.08,0.13
9.595,-0.05,0.05,0.07,0.10
9.605,0.02,0.02,0.08,0.08
9.615,0.02,-0.00,0.04,0.04
9.625,-0.05,0.02,0.01,0.05
9.635,-0.10,0.04,-0.02,0.11
9.645,-0.13,0.05,-0.06,0.15
9.655,-0.15,0.04,-0.12,0.19
9.665,-0.16,0.03,-0.08,0.18
9.675,-0.11,-0.01,-0.09,0.15
9.685,-0.06,-0.03,-0.09,0.11
9.695,-0.03,-0.01,-0.09,0.09
9.705,-0.07,0.00,-0.13,0.15
9.715,-0.10,0.03,-0.12,0.16
9.725,-0.16,0.03,-0.12,0.21
9.735,-0.19,0.02,-0.15,0.24
9.746,-0.14,0.02,-0.16,0.21
9.755,-0.09,0.01,-0.13,0.16
9.765,-0.08,-0.00,-0.10,0.13
9.775,-0.08,0.01,-0.07,0.11
9.785,-0.14,-0.01,-0.08,0.16
9.795,-0.16,0.00,-0.11,0.19
9.805,-0.18,0.00,-0.15,0.23
9.815,-0.17,-0.01,-0.14,0.22
9.825,-0.13,-0.03,-0.15,0.20
9.835,-0.13,-0.02,-0.16,0.21
9.845,-0.16,0.01,-0.11,0.20
9.855,-0.15,0.07,-0.03,0.17
9.866,-0.16,0.10,-0.03,0.19
9.875,-0.18,0.12,-0.06,0.22
9.885,-0.11,0.11,-0.09,0.18
9.895,-0.06,0.10,-0.07,0.14
9.906,-0.03,0.13,-0.02,0.13
9.916,-0.02,0.14,0.07,0.16
9.925,-0.00,0.11,0.12,0.16
9.936,-0.00,0.10,0.11,0.15
9.946,0.02,0.05,0.06,0.08
9.956,0.00,0.02,0.00,0.02
9.966,-0.03,0.02,-0.02,0.04
9.976,-0.04,0.02,-0.01,0.05
9.985,-0.02,0.06,0.03,0.07
9.996,-0.01,0.07,0.04,0.08
10.006,-0.04,0.05,0.01,0.06
10.016,-0.06,0.03,-0.03,0.07
10.026,-0.13,-0.01,-0.05,0.14
10.036,-0.20,-0.01,-0.10,0.23
10.046,-0.25,-0.00,-0.07,0.26
10.056,-0.24,-0.02,-0.03,0.24
10.066,-0.17,-0.04,-0.05,0.18
10.076,-0.12,-0.06,-0.05,0.15
10.086,-0.11,-0.09,-0.08,0.16
10.096,-0.13,-0.09,-0.10,0.19
10.106,-0.16,-0.09,-0.15,0.23
10.116,-0.20,-0.08,-0.11,0.25
10.126,-0.20,-0.05,-0.02,0.20
10.136,-0.17,-0.02,0.00,0.17
10.146,-0.13,-0.02,-0.01,0.13
10.156,-0.11,-0.04,-0.05,0.13
10.166,-0.12,-0.02,-0.07,0.14
10.176,-0.17,-0.00,-0.07,0.18
10.186,-0.18,-0.01,-0.04,0.18
10.196,-0.15,-0.01,-0.03,0.16
10.206,-0.09,-0.03,0.03,0.10
10.216,-0.07,-0.03,0.09,0.12
10.226,-0.07,-0.04,0.11,0.14
10.236,-0.06,-0.06,0.11,0.14
10.246,-0.08,-0.07,0.09,0.14
10.256,-0.13,-0.08,0.04,0.15
10.266,-0.16,-0.10,-0.05,0.19
10.276,-0.20,-0.08,-0.06,0.23
10.286,-0.16,-0.06,-0.04,0.18
10.296,-0.12,0.01,0.05,0.13
10.306,-0.12,0.06,0.08,0.16
10.316,-0.07,0.08,0.07,0.13
10.326,0.02,0.07,0.08,0.11
10.336,0.06,0.05,0.07,0.11
10.346,0.09,0.09,0.05,0.13
10.356,0.04,0.10,0.00,0.11
10.366,-0.06,0.10,-0.04,0.12
10.376,-0.15,0.15,-0.04,0.21
10.386,-0.21,0.14,-0.04,0.26
10.396,-0.24,0.13,-0.04,0.28
10.406,-0.22,0.10,-0.05,0.25
10.416,-0.18,0.07,0.01,0.19
10.426,-0.14,0.04,0.05,0.16
10.436,-0.11,0.01,0.05,0.12
10.446,-0.04,0.01,-0.01,0.04
10.456,-0.04,0.00,-0.04,0.06
10.466,-0.04,0.03,-0.08,0.09
10.476,-0.03,0.02,-0.08,0.09
10.486,-0.07,0.03,-0.07,0.10
10.496,-0.09,0.04,-0.03,0.11
10.506,-0.11,0.02,-0.00,0.11
10.516,-0.15,0.01,-0.04,0.16
10.526,-0.15,-0.00,-0.08,0.16
10.536,-0.10,-0.00,-0.12,0.16
10.546,-0.10,-0.00,-0.15,0.18
10.556,-0.10,-0.00,-0.15,0.18
10.566,-0.11,-0.00,-0.14,0.18
10.576,-0.07,-0.02,-0.08,0.11
10.586,-0.02,-0.04,-0.03,0.06
10.596,0.02,-0.06,-0.02,0.07
10.606,0.01,-0.06,-0.08,0.10
10.616,-0.06,-0.07,-0.14,0.17
10.626,-0.13,-0.06,-0.19,0.24
10.636,-0.19,-0.03,-0.17,0.26
10.646,-0.24,-0.01,-0.11,0.27
10.656,-0.26,0.02,-0.05,0.26
10.666,-0.23,0.01,-0.01,0.23
10.676,-0.17,-0.01,0.02,0.17
10.686,-0.12,-0.03,0.07,0.14
10.696,-0.06,-0.01,0.03,0.07
10.706,-0.07,0.03,0.01,0.07
10.716,-0.08,0.07,0.04,0.11
10.726,-0.08,0.13,0.07,0.17
10.736,-0.13,0.17,0.09,0.23
10.746,-0.14,0.16,0.09,0.23
10.756,-0.11,0.13,0.10,0.20
10.766,-0.09,0.11,0.10,0.17
10.776,-0.11,0.08,0.13,0.19
10.786,-0.13,0.08,0.14,0.21
10.796,-0.14,0.06,0.14,0.21
10.806,-0.13,0.02,0.09,0.16
10.816,-0.09,-0.01,0.03,0.10
10.826,-0.06,-0.06,0.02,0.09
10.836,0.01,-0.06,0.01,0.07
10.846,0.03,-0.06,0.01,0.06
10.856,-0.04,-0.07,0.01,0.08
10.866,-0.09,-0.04,0.01,0.10
10.876,-0.10,-0.02,0.02,0.10
10.886,-0.11,-0.02,-0.02,0.12
10.896,-0.12,-0.02,-0.02,0.12
10.906,-0.12,-0.04,-0.07,0.15
10.916,-0.09,-0.04,-0.09,0.14
10.926,-0.03,-0.05,-0.07,0.09
10.936,-0.02,-0.05,-0.07,0.09
10.946,-0.04,-0.02,-0.09,0.10
10.956,-0.08,-0.04,-0.13,0.15
10.966,-0.15,-0.03,-0.15,0.22
10.976,-0.19,-0.02,-0.12,0.23
10.986,-0.21,-0.02,-0.09,0.23
10.996,-0.21,-0.02,-0.08,0.23
11.006,-0.17,-0.05,-0.08,0.20
11.016,-0.09,-0.05,-0.09,0.14
11.026,-0.05,-0.06,-0.11,0.13
11.036,-0.03,-0.07,-0.09,0.12
11.046,-0.04,-0.06,-0.06,0.10
11.056,-0.10,-0.04,-0.01,0.11
11.066,-0.16,-0.04,-0.02,0.17
11.076,-0.17,-0.05,0.00,0.18
11.086,-0.14,-0.03,0.01,0.14
11.096,-0.10,-0.03,0.01,0.10
11.106,-0.06,-0.02,-0.00,0.07
11.116,-0.06,-0.01,-0.02,0.06
11.126,-0.05,-0.01,-0.04,0.06
11.136,-0.09,-0.03,-0.05,0.10
11.146,-0.13,-0.02,-0.02,0.13
11.156,-0.15,0.02,-0.01,0.15
11.166,-0.19,0.05,-0.00,0.20
11.176,-0.18,0.04,-0.00,0.18
11.186,-0.10,0.03,-0.01,0.10
11.196,-0.04,0.02,-0.01,0.04
11.206,-0.03,-0.00,-0.07,0.08
11.216,-0.05,-0.01,-0.08,0.10
11.227,-0.07,-0.02,-0.08,0.11
11.236,-0.07,-0.02,-0.08,0.11
11.246,-0.10,-0.02,-0.07,0.12
11.256,-0.10,-0.03,-0.05,0.12
11.266,-0.09,-0.02,-0.02,0.09
11.276,-0.08,-0.04,0.01,0.09
11.286,-0.08,-0.05,-0.02,0.09
11.296,-0.09,-0.05,-0.04,0.11
11.306,-0.10,-0.02,-0.03,0.11
11.317,-0.08,-0.00,0.02,0.08
11.327,-0.05,0.02,0.04,0.07
11.337,-0.06,0.03,0.03,0.07
11.346,-0.04,0.01,0.01,0.04
11.357,-0.06,0.00,-0.02,0.06
11.367,-0.11,-0.01,-0.07,0.13
11.376,-0.14,-0.01,-0.07,0.16
11.387,-0.19,-0.01,-0.00,0.19
11.397,-0.22,-0.01,0.01,0.22
11.407,-0.18,-0.03,0.01,0.19
11.417,-0.15,-0.03,-0.01,0.15
11.427,-0.13,-0.03,-0.05,0.14
11.437,-0.09,-0.01,-0.05,0.11
11.447,-0.05,-0.01,-0.03,0.06
11.457,-0.04,0.00,-0.01,0.04
11.467,-0.01,0.00,-0.01,0.01
11.477,-0.02,0.00,0.02,0.02
11.487,-0.03,-0.02,-0.03,0.05
11.497,-0.05,0.00,-0.04,0.07
11.507,-0.06,0.02,-0.04,0.07
11.517,-0.09,0.02,-0.03,0.10
11.527,-0.13,-0.01,-0.07,0.15
11.537,-0.19,-0.02,-0.08,0.21
11.547,-0.19,-0.01,-0.03,0.19
11.557,-0.17,-0.02,-0.01,0.17
11.567,-0.13,-0.02,-0.01,0.14
11.577,-0.06,-0.00,-0.01,0.06
11.587,-0.03,-0.00,-0.04,0.05
11.597,-0.01,-0.03,-0.06,0.06
11.607,-0.02,-0.03,-0.04,0.05
11.617,-0.06,-0.00,-0.03,0.07
11.627,-0.12,-0.00,-0.03,0.13
11.637,-0.13,-0.01,-0.04,0.14
11.647,-0.11,-0.02,-0.04,0.12
11.657,-0.15,0.00,-0.01,0.15
11.667,-0.11,0.01,-0.00,0.11
11.677,-0.08,0.00,0.01,0.08
11.687,-0.05,0.00,-0.00,0.05
11.697,-0.02,-0.02,-0.05,0.06
11.707,-0.01,-0.02,-0.06,0.07
11.717,-0.05,-0.01,-0.04,0.07
11.727,-0.07,0.02,-0.04,0.08
11.737,-0.09,0.03,-0.01,0.09
11.747,-0.12,0.00,-0.03,0.12
11.757,-0.15,-0.01,-0.08,0.17
11.767,-0.19,-0.02,-0.08,0.21
11.777,-0.20,-0.00,-0.07,0.21
11.787,-0.16,-0.02,-0.03,0.16
11.797,-0.11,-0.00,-0.01,0.11
11.807,-0.07,0.02,-0.01,0.07
11.817,-0.06,0.00,-0.04,0.07
11.827,-0.04,-0.00,-0.08,0.09
11.837,-0.04,-0.00,-0.09,0.10
11.847,-0.02,-0.02,-0.10,0.11
11.857,-0.06,-0.02,-0.12,0.13
11.867,-0.08,-0.03,-0.11,0.14
11.877,-0.10,-0.02,-0.09,0.13
11.887,-0.13,-0.02,-0.12,0.18
11.897,-0.14,-0.03,-0.12,0.19
11.907,-0.14,-0.02,-0.11,0.18
11.917,-0.14,-0.00,-0.10,0.17
11.927,-0.13,0.01,-0.08,0.15
11.937,-0.14,0.03,-0.04,0.15
11.947,-0.17,0.03,-0.04,0.17
11.957,-0.13,0.07,-0.01,0.15
11.967,-0.07,0.08,0.01,0.11
11.977,-0.02,0.06,-0.02,0.07
11.987,-0.03,0.08,-0.02,0.08
11.997,-0.05,0.08,-0.03,0.09
12.006,-0.06,0.04,-0.03,0.08
12.016,-0.08,0.03,-0.02,0.09
12.026,-0.09,0.02,-0.03,0.09
12.036,-0.08,0.01,-0.05,0.10
12.046,-0.06,0.02,-0.06,0.08
12.056,-0.06,0.07,-0.08,0.12
12.066,-0.11,0.09,-0.09,0.17
12.076,-0.15,0.09,-0.04,0.18
12.086,-0.15,0.06,-0.08,0.18
12.096,-0.13,-0.00,-0.11,0.17
12.106,-0.09,-0.04,-0.11,0.15
12.116,-0.07,-0.05,-0.10,0.14
12.126,-0.07,-0.05,-0.08,0.11
12.136,-0.09,-0.02,-0.03,0.10
12.146,-0.13,0.05,0.02,0.14
12.156,-0.17,0.11,0.08,0.22
12.166,-0.15,0.12,0.04,0.20
12.176,-0.11,0.07,-0.06,0.15
12.186,-0.03,0.00,-0.12,0.13
12.196,-0.02,-0.06,-0.14,0.15
12.206,-0.04,-0.10,-0.12,0.17
12.216,-0.05,-0.11,-0.06,0.13
12.226,-0.09,-0.07,-0.03,0.11
12.236,-0.15,-0.02,-0.00,0.15
12.246,-0.21,0.04,-0.01,0.22
12.256,-0.21,0.07,-0.03,0.22
12.266,-0.13,0.04,-0.08,0.15
12.276,-0.06,-0.03,-0.16,0.17
12.286,0.02,-0.11,-0.21,0.23
12.296,0.06,-0.15,-0.21,0.26
12.306,0.00,-0.15,-0.15,0.21
12.316,-0.09,-0.12,-0.07,0.17
12.326,-0.18,-0.05,0.00,0.19
12.336,-0.25,-0.04,-0.02,0.25
12.346,-0.29,-0.02,-0.04,0.30
12.356,-0.23,-0.04,-0.09,0.24
12.368,-0.18,-0.05,-0.08,0.21
12.378,-0.18,-0.05,-0.04,0.19
12.388,-0.18,-0.03,0.01,0.18
12.398,-0.11,-0.03,0.08,0.14
12.408,-0.06,-0.02,0.14,0.16
12.418,-0.06,-0.02,0.16,0.18
12.428,-0.04,-0.02,0.18,0.19
12.438,-0.00,0.00,0.18,0.18
12.448,-0.02,-0.00,0.15,0.15
12.459,-0.07,0.01,0.11,0.13
12.468,-0.10,0.02,0.09,0.14
12.478,-0.09,0.03,0.10,0.14
12.488,-0.06,0.02,0.12,0.14
12.498,-0.03,0.03,0.12,0.12
12.508,-0.01,0.02,0.09,0.09
12.518,-0.05,0.03,0.07,0.09
12.528,-0.10,0.05,0.03,0.11
12.538,-0.08,0.08,0.03,0.12
12.548,-0.08,0.07,0.05,0.12
12.559,-0.06,0.05,0.02,0.09
12.568,-0.06,0.01,-0.05,0.08
12.579,-0.06,-0.02,-0.09,0.11
12.589,-0.04,-0.03,-0.14,0.15
12.599,-0.05,-0.05,-0.13,0.15
12.609,-0.07,-0.05,-0.13,0.16
12.619,-0.11,-0.04,-0.13,0.17
12.629,-0.15,-0.02,-0.11,0.18
12.639,-0.21,-0.01,-0.09,0.23
12.649,-0.19,0.02,-0.06,0.20
12.659,-0.15,0.03,-0.07,0.17
12.669,-0.12,0.02,-0.09,0.15
12.679,-0.04,0.04,-0.09,0.10
12.689,-0.00,0.03,-0.09,0.09
12.699,-0.03,0.04,-0.07,0.09
12.709,-0.07,0.06,-0.02,0.09
12.719,-0.10,0.09,0.04,0.13
12.728,-0.11,0.10,0.02,0.15
12.739,-0.07,0.09,0.00,0.11
12.749,-0.07,0.07,-0.00,0.10
12.759,-0.06,0.08,-0.04,0.11
12.769,-0.03,0.08,-0.03,0.09
12.779,-0.04,0.05,-0.04,0.08
12.789,-0.06,0.01,-0.06,0.08
12.799,-0.09,0.02,-0.06,0.11
12.809,-0.06,0.01,-0.05,0.08
12.819,-0.07,-0.02,-0.07,0.10
12.829,-0.04,-0.04,-0.11,0.12
12.839,-0.03,-0.04,-0.13,0.14
12.849,-0.05,-0.02,-0.14,0.15
12.859,-0.07,-0.01,-0.12,0.14
12.869,-0.10,-0.03,-0.12,0.16
12.879,-0.10,-0.04,-0.13,0.17
12.889,-0.13,-0.04,-0.10,0.16
12.899,-0.11,-0.01,-0.07,0.13
12.909,-0.10,0.00,-0.07,0.12
12.919,-0.09,-0.00,-0.12,0.15
12.929,-0.09,-0.02,-0.11,0.14
12.939,-0.07,0.00,-0.10,0.12
12.949,-0.09,-0.03,-0.15,0.17
12.959,-0.09,-0.03,-0.18,0.20
12.969,-0.10,-0.02,-0.15,0.18
12.979,-0.13,-0.03,-0.10,0.17
12.989,-0.13,0.01,-0.06,0.14
12.999,-0.09,-0.02,-0.03,0.10
13.009,-0.04,-0.07,-0.04,0.09
13.019,-0.03,-0.10,-0.08,0.13
13.029,-0.05,-0.10,-0.11,0.15
13.039,-0.11,-0.06,-0.08,0.15
13.049,-0.18,-0.03,-0.05,0.19
13.059,-0.19,-0.01,-0.02,0.19
13.069,-0.14,-0.00,-0.01,0.14
13.079,-0.12,-0.04,-0.02,0.13
13.089,-0.10,-0.03,-0.03,0.11
13.099,-0.05,-0.06,0.00,0.07
13.109,-0.02,-0.06,0.01,0.06
13.119,-0.04,-0.05,0.02,0.06
13.129,-0.07,-0.03,0.02,0.08
13.139,-0.13,-0.03,0.04,0.14
13.149,-0.18,-0.02,0.06,0.19
13.159,-0.21,-0.02,0.08,0.23
13.169,-0.23,-0.01,0.04,0.23
13.179,-0.17,-0.04,-0.00,0.17
13.189,-0.16,-0.02,-0.00,0.16
13.199,-0.13,-0.00,0.03,0.14
13.209,-0.09,-0.00,0.07,0.11
13.219,-0.05,-0.01,0.06,0.08
13.229,-0.01,-0.03,0.02,0.04
13.239,0.02,-0.03,0.05,0.06
13.249,-0.02,-0.01,0.08,0.08
13.259,-0.05,0.03,0.06,0.09
13.269,-0.07,0.03,0.00,0.08
13.279,-0.07,0.01,-0.06,0.09
13.289,-0.05,0.00,-0.04,0.07
13.299,-0.05,0.01,-0.04,0.06
13.309,-0.09,0.01,-0.02,0.10
13.319,-0.12,0.02,-0.02,0.12
13.329,-0.13,-0.00,-0.05,0.14
13.339,-0.11,-0.01,-0.09,0.14
13.349,-0.10,-0.01,-0.09,0.14
13.359,-0.10,0.01,-0.09,0.14
13.369,-0.11,0.01,-0.09,0.14
13.379,-0.12,0.02,-0.08,0.15
13.389,-0.12,0.01,-0.06,0.13
13.399,-0.10,0.02,-0.07,0.12
13.409,-0.11,0.03,-0.08,0.14
13.419,-0.10,0.01,-0.10,0.14
13.429,-0.07,0.00,-0.12,0.14
13.439,-0.05,0.02,-0.12,0.13
13.449,-0.05,0.02,-0.09,0.10
13.459,-0.05,0.01,-0.07,0.09
13.469,-0.06,-0.00,-0.06,0.09
13.479,-0.08,0.03,-0.05,0.10
13.489,-0.13,0.01,-0.04,0.14
13.499,-0.14,0.03,-0.05,0.15
13.509,-0.10,0.02,-0.06,0.12
13.519,-0.05,0.01,-0.07,0.09
13.529,0.00,-0.00,-0.04,0.04
13.539,-0.03,-0.00,-0.06,0.07
13.549,-0.07,0.02,-0.03,0.08
13.559,-0.08,0.02,0.01,0.08
13.569,-0.03,0.01,-0.01,0.03
13.579,-0.02,-0.02,-0.03,0.04
13.589,-0.06,-0.03,-0.07,0.10
13.599,-0.06,-0.03,-0.07,0.10
13.609,-0.11,-0.01,-0.07,0.13
13.619,-0.11,0.01,-0.06,0.12
13.629,-0.14,0.02,-0.04,0.15
13.639,-0.15,0.01,-0.06,0.16
13.649,-0.14,-0.00,-0.09,0.17
13.659,-0.15,-0.03,-0.08,0.17
13.669,-0.15,-0.05,-0.07,0.17
13.679,-0.14,-0.04,-0.07,0.16
13.689,-0.11,-0.04,-0.09,0.14
13.699,-0.10,-0.06,-0.09,0.14
13.709,-0.10,-0.05,-0.08,0.14
13.719,-0.12,-0.04,-0.07,0.14
13.729,-0.10,-0.04,-0.06,0.12
13.739,-0.12,-0.06,-0.08,0.15
13.749,-0.13,-0.04,-0.07,0.15
13.759,-0.08,-0.04,-0.06,0.11
13.769,-0.05,-0.03,-0.09,0.11
13.779,-0.07,-0.04,-0.10,0.13
13.789,-0.09,-0.03,-0.09,0.13
13.799,-0.10,-0.02,-0.08,0.13
13.809,-0.10,-0.00,-0.08,0.13
13.819,-0.10,-0.01,-0.08,0.13
13.829,-0.08,-0.03,-0.09,0.13
13.839,-0.12,-0.02,-0.11,0.16
13.849,-0.13,-0.02,-0.07,0.15
13.860,-0.14,-0.01,-0.08,0.16
13.869,-0.10,-0.04,-0.12,0.16
13.879,-0.08,-0.04,-0.15,0.18
13.889,-0.07,-0.03,-0.16,0.18
13.899,-0.08,-0.01,-0.13,0.16
13.909,-0.09,-0.00,-0.07,0.11
13.919,-0.08,0.01,-0.03,0.09
13.929,-0.12,0.02,-0.00,0.12
13.939,-0.11,0.01,-0.02,0.11
13.950,-0.09,-0.02,-0.04,0.10
13.960,-0.08,-0.03,-0.00,0.09
13.969,-0.06,-0.02,0.01,0.06
13.980,-0.02,-0.03,-0.02,0.04
13.990,0.02,-0.04,0.01,0.04
13.999,-0.03,-0.01,0.03,0.04
14.009,-0.05,0.02,0.02,0.06
14.020,-0.12,0.03,0.01,0.12
14.030,-0.17,0.03,0.01,0.17
14.040,-0.19,0.05,0.00,0.20
14.050,-0.24,0.05,-0.02,0.25
14.060,-0.24,0.03,-0.03,0.25
14.070,-0.21,0.03,-0.03,0.22
14.080,-0.11,0.00,-0.04,0.11
14.090,-0.04,-0.03,-0.06,0.08
14.100,0.02,-0.04,-0.08,0.09
14.110,0.03,-0.04,-0.04,0.06
14.120,-0.01,-0.04,0.01,0.04
14.130,-0.04,-0.02,0.02,0.05
14.140,-0.03,-0.02,-0.02,0.04
14.150,-0.03,-0.01,-0.04,0.05
14.160,-0.07,0.00,-0.06,0.09
14.170,-0.12,0.00,-0.06,0.13
14.180,-0.16,0.03,-0.02,0.17
14.190,-0.17,0.04,0.01,0.18
14.200,-0.18,0.04,0.02,0.18
14.210,-0.14,0.01,0.03,0.15
14.220,-0.04,0.02,0.04,0.06
14.230,-0.01,0.03,0.04,0.05
14.240,-0.02,0.03,0.05,0.06
14.250,-0.08,0.05,0.08,0.12
14.260,-0.14,0.05,0.11,0.18
14.270,-0.15,0.03,0.11,0.19
14.280,-0.16,0.02,0.07,0.17
14.290,-0.17,0.01,0.02,0.17
14.300,-0.15,0.01,-0.03,0.15
14.310,-0.13,0.02,-0.00,0.13
14.320,-0.08,0.01,0.04,0.09
14.330,-0.05,-0.00,0.06,0.08
14.340,-0.04,-0.01,0.03,0.05
14.350,-0.05,-0.03,-0.02,0.07
14.360,-0.05,-0.05,-0.03,0.07
14.370,-0.09,-0.04,-0.05,0.11
14.380,-0.15,-0.02,-0.09,0.17
14.390,-0.14,-0.00,-0.07,0.16
14.400,-0.10,0.01,-0.03,0.11
14.410,-0.09,0.01,-0.03,0.10
14.420,-0.08,0.02,-0.06,0.10
14.430,-0.09,0.00,-0.08,0.12
14.440,-0.12,-0.01,-0.07,0.14
14.450,-0.14,0.02,-0.04,0.15
14.460,-0.18,0.04,-0.02,0.18
14.470,-0.19,0.04,-0.04,0.20
14.480,-0.17,0.03,-0.05,0.18
14.490,-0.13,0.02,-0.04,0.14
14.500,-0.12,0.03,-0.00,0.12
14.510,-0.10,0.03,0.02,0.10
14.520,-0.10,0.02,0.02,0.10
14.530,-0.06,-0.00,0.01,0.06
14.540,-0.11,0.00,0.00,0.11
14.550,-0.12,0.00,-0.05,0.13
14.560,-0.12,-0.00,-0.07,0.14
14.570,-0.10,-0.00,-0.04,0.11
14.580,-0.12,-0.01,-0.06,0.14
14.590,-0.09,-0.02,-0.11,0.14
14.600,-0.08,-0.02,-0.09,0.12
14.610,-0.10,-0.01,-0.06,0.11
14.620,-0.11,0.02,-0.08,0.13
14.630,-0.14,0.00,-0.06,0.15
14.640,-0.13,0.02,-0.07,0.15
14.650,-0.16,0.01,-0.07,0.17
14.660,-0.17,0.02,-0.06,0.18
14.670,-0.13,-0.00,-0.05,0.14
14.680,-0.05,-0.01,-0.05,0.07
14.690,0.02,-0.01,-0.05,0.05
14.700,0.08,0.01,-0.05,0.09
14.710,0.07,-0.00,-0.04,0.08
14.720,0.01,-0.01,-0.03,0.03
14.730,-0.04,-0.00,-0.03,0.05
14.740,-0.11,-0.00,-0.03,0.11
14.750,-0.15,0.01,-0.03,0.15
14.760,-0.17,0.02,-0.01,0.17
14.770,-0.19,0.00,-0.02,0.19
14.780,-0.17,-0.01,-0.01,0.18
14.790,-0.16,0.01,0.03,0.17
14.800,-0.15,0.01,0.04,0.16
14.810,-0.14,0.00,0.07,0.16
14.820,-0.06,-0.04,0.06,0.10
14.830,-0.07,-0.08,0.02,0.11
14.840,-0.08,-0.11,-0.03,0.13
14.850,-0.04,-0.09,-0.02,0.10
14.860,-0.01,-0.09,0.03,0.09
14.870,-0.01,-0.07,0.01,0.07
14.880,-0.08,-0.02,0.00,0.08
14.890,-0.11,-0.02,-0.00,0.11
14.900,-0.14,-0.04,-0.06,0.16
14.910,-0.14,-0.02,-0.10,0.17
14.920,-0.14,0.00,-0.10,0.17
14.930,-0.14,0.01,-0.08,0.16
14.940,-0.12,0.01,-0.07,0.14
14.950,-0.08,0.00,-0.05,0.09
14.960,-0.10,0.02,-0.02,0.11
14.970,-0.07,0.02,0.03,0.08
14.980,-0.09,0.02,0.00,0.09
14.990,-0.09,0.03,-0.05,0.10
15.000,-0.07,0.00,-0.09,0.11
15.010,-0.04,-0.01,-0.12,0.13
15.020,-0.02,-0.01,-0.13,0.13
15.031,-0.07,-0.03,-0.10,0.13
15.040,-0.12,-0.02,-0.06,0.13
15.050,-0.14,-0.00,-0.02,0.14
15.060,-0.17,0.01,-0.01,0.17
15.070,-0.16,-0.01,-0.07,0.17
15.080,-0.11,-0.02,-0.08,0.14
15.091,-0.08,-0.05,-0.12,0.15
15.100,-0.09,-0.03,-0.07,0.11
15.110,-0.13,-0.00,-0.03,0.13
15.120,-0.12,0.01,-0.01,0.12
15.130,-0.11,-0.02,-0.01,0.11
15.140,-0.10,-0.03,-0.06,0.12
15.150,-0.09,-0.01,-0.11,0.14
15.160,-0.12,-0.00,-0.10,0.15
15.170,-0.13,0.01,-0.05,0.14
15.180,-0.12,0.03,0.01,0.13
15.190,-0.09,0.04,0.06,0.11
15.200,-0.07,0.03,0.06,0.09
15.210,-0.07,0.02,0.05,0.09
15.220,-0.08,0.00,0.01,0.08
15.231,-0.11,0.02,-0.00,0.11
15.240,-0.10,0.02,-0.01,0.11
15.250,-0.11,0.03,0.00,0.11
15.261,-0.08,0.03,0.04,0.10
15.270,-0.04,0.02,0.06,0.08
15.280,-0.01,0.01,0.05,0.05
15.290,-0.00,0.01,0.02,0.02
15.300,-0.04,0.01,-0.00,0.04
15.311,-0.08,0.02,-0.05,0.09
15.321,-0.13,0.02,-0.07,0.15
15.331,-0.19,0.02,-0.05,0.20
15.341,-0.22,0.04,-0.04,0.23
15.351,-0.18,0.03,-0.02,0.19
15.361,-0.12,-0.01,0.01,0.12
15.371,-0.03,-0.03,0.01,0.04
15.381,0.01,-0.04,-0.02,0.04
15.391,-0.01,-0.02,-0.05,0.06
15.401,-0.07,-0.04,-0.05,0.10
15.410,-0.12,-0.01,-0.05,0.13
15.421,-0.15,-0.00,-0.05,0.16
15.431,-0.16,0.00,-0.06,0.17
15.441,-0.13,-0.01,-0.03,0.13
15.451,-0.09,-0.03,-0.01,0.10
15.461,-0.10,-0.03,-0.02,0.11
15.471,-0.12,-0.02,-0.03,0.13
15.481,-0.14,0.00,-0.03,0.14
15.491,-0.12,0.00,-0.04,0.13
15.501,-0.09,-0.00,-0.04,0.10
15.510,-0.04,-0.02,-0.05,0.07
15.521,-0.06,-0.04,-0.02,0.08
15.531,-0.10,-0.04,0.01,0.11
15.541,-0.11,-0.00,0.02,0.11
15.551,-0.09,-0.01,-0.02,0.10
15.561,-0.12,0.01,-0.05,0.13
15.571,-0.14,0.03,-0.02,0.14
15.581,-0.13,0.05,-0.03,0.14
15.591,-0.11,0.04,-0.03,0.12
15.601,-0.11,0.02,-0.03,0.12
15.611,-0.10,0.02,-0.07,0.12
15.621,-0.09,0.02,-0.06,0.11
15.631,-0.11,0.01,-0.06,0.12
15.641,-0.14,-0.00,-0.10,0.17
15.651,-0.17,-0.01,-0.13,0.21
15.661,-0.14,-0.00,-0.07,0.16
15.671,-0.09,0.01,-0.03,0.10
15.681,-0.11,0.01,-0.01,0.11
15.691,-0.09,0.01,-0.02,0.09
15.701,-0.06,-0.02,-0.02,0.07
15.711,-0.05,-0.02,-0.06,0.08
15.721,-0.06,-0.03,-0.09,0.11
15.731,-0.07,-0.03,-0.05,0.09
15.741,-0.06,0.01,-0.06,0.09
15.751,-0.08,-0.01,-0.08,0.11
15.761,-0.11,0.00,-0.07,0.13
15.771,-0.12,0.00,-0.06,0.13
15.781,-0.14,0.01,-0.05,0.15
15.791,-0.14,0.02,-0.04,0.14
15.801,-0.14,0.00,-0.04,0.15
15.811,-0.13,-0.01,-0.02,0.13
15.821,-0.09,-0.00,0.02,0.09
15.831,-0.06,-0.03,0.03,0.08
15.841,-0.03,-0.04,0.04,0.06
15.851,-0.03,-0.06,0.02,0.07
15.861,-0.09,-0.05,-0.03,0.11
15.871,-0.09,-0.03,-0.01,0.09
15.881,-0.07,-0.02,-0.01,0.08
15.891,-0.08,-0.00,-0.02,0.08
15.901,-0.05,-0.01,-0.00,0.05
15.911,-0.06,-0.01,-0.01,0.06
15.921,-0.13,0.00,-0.02,0.13
15.931,-0.14,-0.03,-0.07,0.16
15.941,-0.15,-0.04,-0.10,0.18
15.951,-0.11,-0.03,-0.09,0.15
15.961,-0.09,-0.03,-0.09,0.13
15.971,-0.11,-0.04,-0.10,0.15
15.981,-0.15,-0.03,-0.08,0.17
15.991,-0.16,0.01,-0.06,0.17
16.001,-0.12,0.01,-0.05,0.13
16.009,-0.11,0.03,-0.07,0.13
16.018,-0.11,0.02,-0.05,0.12
16.028,-0.11,0.02,-0.03,0.12
16.038,-0.10,0.02,-0.05,0.11
16.049,-0.10,0.01,-0.03,0.10
16.059,-0.11,0.01,-0.01,0.11
16.068,-0.06,0.00,-0.02,0.06
16.078,-0.03,-0.01,-0.01,0.04
16.088,-0.04,-0.00,0.02,0.04
16.098,0.00,0.02,0.01,0.02
16.108,-0.00,0.00,0.01,0.01
16.119,-0.05,0.01,-0.01,0.05
16.129,-0.11,0.01,-0.00,0.11
16.139,-0.15,0.03,0.02,0.15
16.149,-0.13,0.02,0.04,0.14
16.159,-0.08,0.02,-0.00,0.08
16.169,-0.06,-0.02,-0.04,0.08
16.179,-0.04,-0.01,-0.03,0.05
16.189,-0.06,0.03,-0.02,0.07
16.199,-0.07,0.02,-0.01,0.07
16.209,-0.10,0.01,-0.01,0.10
16.219,-0.13,-0.01,-0.05,0.14
16.229,-0.13,-0.02,-0.03,0.14
16.239,-0.11,-0.03,-0.05,0.13
16.248,-0.07,-0.06,-0.07,0.11
16.259,-0.05,-0.05,-0.04,0.08
16.269,-0.04,-0.06,-0.02,0.07
16.279,-0.02,-0.02,-0.05,0.05
16.289,-0.01,-0.01,-0.07,0.07
16.299,-0.01,0.01,-0.05,0.05
16.309,-0.02,0.02,-0.06,0.07
16.319,-0.06,0.04,-0.07,0.10
16.329,-0.11,0.06,-0.07,0.15
16.339,-0.15,0.06,-0.05,0.16
16.349,-0.15,0.06,-0.11,0.20
16.359,-0.17,0.07,-0.13,0.23
16.369,-0.17,0.05,-0.11,0.21
16.379,-0.16,0.04,-0.10,0.19
16.389,-0.13,0.03,-0.07,0.15
16.399,-0.10,0.01,-0.06,0.12
16.409,-0.07,-0.01,-0.06,0.09
16.419,-0.05,-0.03,-0.04,0.07
16.429,-0.04,-0.03,-0.01,0.05
16.439,-0.05,-0.03,-0.01,0.06
16.449,-0.07,-0.03,-0.03,0.08
16.459,-0.08,-0.02,-0.01,0.08
16.469,-0.04,-0.02,-0.03,0.05
16.479,-0.02,-0.04,-0.08,0.09
16.489,-0.03,-0.06,-0.11,0.13
16.499,-0.05,-0.04,-0.08,0.10
16.509,-0.08,-0.01,-0.04,0.09
16.519,-0.13,0.00,-0.02,0.13
16.529,-0.15,0.00,-0.03,0.16
16.539,-0.17,-0.02,-0.04,0.18
16.549,-0.17,-0.03,-0.04,0.17
16.559,-0.10,-0.03,-0.03,0.11
16.569,-0.03,-0.02,-0.00,0.03
16.579,0.02,-0.01,0.03,0.04
16.589,0.04,0.01,0.04,0.05
16.599,-0.01,0.04,0.03,0.05
16.609,-0.06,0.04,-0.00,0.07
16.619,-0.14,0.04,-0.01,0.14
16.629,-0.15,0.04,-0.04,0.16
16.639,-0.19,0.03,-0.05,0.20
16.649,-0.15,0.02,-0.07,0.17
16.659,-0.13,0.03,-0.09,0.16
16.669,-0.11,0.00,-0.07,0.13
16.679,-0.10,-0.00,-0.02,0.11
16.689,-0.11,-0.01,0.00,0.11
16.699,-0.12,-0.03,-0.03,0.13
16.709,-0.14,-0.04,-0.06,0.16
16.719,-0.11,-0.05,-0.08,0.15
16.729,-0.05,-0.05,-0.09,0.11
16.739,-0.02,-0.06,-0.10,0.12
16.749,0.01,-0.04,-0.10,0.11
16.759,-0.00,-0.03,-0.09,0.10
16.769,-0.05,-0.03,-0.09,0.11
16.779,-0.15,-0.02,-0.08,0.17
16.789,-0.18,-0.02,-0.06,0.19
16.799,-0.20,-0.02,-0.01,0.20
16.809,-0.18,0.01,0.01,0.18
16.819,-0.16,0.06,-0.01,0.18
16.829,-0.12,0.07,-0.04,0.14
16.839,-0.08,0.08,-0.01,0.11
16.849,-0.04,0.05,-0.04,0.08
16.859,-0.03,0.03,-0.03,0.05
16.869,-0.02,0.03,-0.02,0.04
16.879,-0.03,-0.01,-0.01,0.03
16.889,-0.08,0.00,-0.01,0.08
16.899,-0.16,0.02,-0.01,0.16
16.909,-0.21,0.02,-0.02,0.21
16.919,-0.23,0.04,-0.05,0.24
16.929,-0.21,0.00,-0.08,0.23
16.939,-0.17,-0.01,-0.08,0.18
16.949,-0.11,-0.02,-0.06,0.13
16.959,-0.09,-0.02,-0.04,0.10
16.969,-0.04,-0.04,-0.04,0.06
16.979,-0.02,-0.04,-0.05,0.07
16.989,0.02,-0.02,-0.03,0.04
16.999,-0.01,-0.01,-0.03,0.03
17.009,-0.08,0.03,-0.04,0.10
17.019,-0.11,0.05,-0.03,0.13
17.029,-0.13,0.09,-0.00,0.16
17.039,-0.15,0.09,0.01,0.17
17.049,-0.16,0.05,0.01,0.17
17.059,-0.17,0.02,-0.00,0.17
17.069,-0.17,-0.00,-0.04,0.17
17.079,-0.12,-0.05,-0.04,0.14
17.089,-0.09,-0.06,-0.05,0.12
17.099,-0.06,-0.07,-0.06,0.11
17.109,-0.07,-0.07,-0.04,0.11
17.119,-0.09,-0.07,-0.02,0.12
17.129,-0.08,-0.05,-0.03,0.10
17.139,-0.11,-0.04,-0.05,0.13
17.149,-0.15,-0.01,-0.05,0.16
17.159,-0.16,0.00,-0.04,0.16
17.169,-0.14,-0.00,-0.06,0.15
17.179,-0.10,0.02,-0.03,0.11
17.189,-0.09,0.03,-0.03,0.10
17.199,-0.09,0.02,-0.02,0.09
17.209,-0.08,-0.01,0.01,0.08
17.219,-0.11,0.01,-0.02,0.11
17.229,-0.15,-0.01,-0.02,0.15
17.239,-0.13,-0.04,-0.02,0.14
17.249,-0.13,-0.04,-0.01,0.13
17.259,-0.12,-0.05,-0.01,0.13
17.269,-0.08,-0.03,-0.02,0.08
17.279,-0.05,-0.03,-0.01,0.06
17.289,-0.03,-0.02,-0.02,0.04
17.299,-0.06,-0.01,-0.05,0.07
17.309,-0.09,0.00,-0.05,0.10
17.319,-0.11,0.03,-0.06,0.13
17.329,-0.15,0.01,-0.06,0.16
17.339,-0.17,0.02,-0.01,0.18
17.349,-0.17,0.02,0.00,0.17
17.359,-0.16,0.00,0.01,0.16
17.369,-0.11,0.00,0.00,0.11
17.380,-0.06,-0.04,-0.01,0.08
17.389,-0.01,-0.06,-0.03,0.06
17.399,-0.03,-0.05,-0.03,0.06
17.410,-0.05,-0.03,-0.00,0.06
17.420,-0.03,-0.04,0.02,0.05
17.429,-0.04,-0.01,0.05,0.07
17.439,-0.08,0.02,0.02,0.08
17.449,-0.11,0.03,0.01,0.11
17.460,-0.15,0.03,-0.00,0.15
17.469,-0.13,0.03,-0.01,0.13
17.480,-0.14,0.03,-0.04,0.14
17.489,-0.14,0.01,-0.05,0.15
17.499,-0.13,-0.02,-0.05,0.14
17.510,-0.14,-0.04,-0.05,0.15
17.519,-0.13,-0.05,-0.02,0.14
17.529,-0.10,-0.04,-0.01,0.11
17.539,-0.10,-0.05,-0.06,0.13
17.549,-0.10,-0.05,-0.09,0.15
17.559,-0.10,-0.03,-0.09,0.13
17.570,-0.08,-0.02,-0.09,0.12
17.580,-0.09,-0.01,-0.10,0.14
17.590,-0.09,-0.00,-0.11,0.14
17.600,-0.09,0.02,-0.06,0.11
17.610,-0.12,0.02,-0.05,0.13
17.620,-0.12,0.01,-0.05,0.13
17.630,-0.12,0.02,-0.05,0.14
17.639,-0.11,0.04,-0.03,0.13
17.650,-0.10,0.03,-0.02,0.11
17.660,-0.10,0.03,-0.01,0.11
17.670,-0.10,0.03,-0.02,0.10
17.680,-0.06,0.05,0.01,0.08
17.690,-0.07,0.04,0.04,0.09
17.700,-0.09,0.02,0.03,0.10
17.710,-0.11,0.01,-0.03,0.12
17.720,-0.11,0.00,-0.02,0.11
17.730,-0.09,-0.00,-0.02,0.09
17.740,-0.09,-0.01,-0.02,0.09
17.750,-0.11,-0.01,-0.01,0.11
17.760,-0.09,-0.02,0.00,0.09
17.770,-0.09,-0.02,-0.01,0.09
17.780,-0.05,-0.02,0.00,0.05
17.790,-0.07,-0.03,-0.03,0.08
17.800,-0.09,-0.01,-0.07,0.11
17.810,-0.10,0.00,-0.04,0.11
17.820,-0.09,0.03,-0.03,0.10
17.830,-0.10,0.04,-0.02,0.11
17.840,-0.09,0.04,-0.03,0.10
17.850,-0.09,0.03,-0.03,0.10
17.860,-0.12,0.02,-0.03,0.12
17.870,-0.10,0.01,-0.04,0.11
17.880,-0.11,0.00,-0.05,0.12
17.890,-0.14,-0.00,-0.05,0.14
17.900,-0.16,-0.00,-0.03,0.16
17.910,-0.18,0.02,-0.02,0.18
17.920,-0.17,0.02,-0.04,0.18
17.930,-0.16,0.01,-0.04,0.16
17.940,-0.14,-0.00,-0.03,0.15
17.950,-0.12,-0.01,-0.03,0.12
17.960,-0.07,-0.01,-0.03,0.08
17.970,-0.05,-0.03,-0.00,0.06
17.980,-0.07,-0.00,0.02,0.08
17.990,-0.06,-0.01,0.02,0.06
18.000,-0.05,-0.00,-0.01,0.05
18.010,-0.06,-0.01,-0.06,0.09
18.020,-0.07,0.01,-0.04,0.08
18.030,-0.10,0.02,-0.04,0.11
18.040,-0.10,0.03,-0.03,0.11
18.050,-0.07,0.02,-0.01,0.07
18.060,-0.07,0.00,-0.01,0.07
18.070,-0.08,0.00,-0.04,0.09
18.080,-0.09,0.01,-0.06,0.11
18.090,-0.12,0.03,-0.07,0.14
18.100,-0.16,0.02,-0.08,0.18
18.110,-0.20,0.02,-0.07,0.22
18.120,-0.19,0.03,-0.03,0.19
18.130,-0.14,0.04,0.01,0.14
18.140,-0.08,0.00,0.01,0.08
18.150,-0.01,-0.03,-0.01,0.04
18.160,0.02,-0.05,0.00,0.05
18.170,-0.00,-0.06,-0.01,0.06
18.180,-0.04,-0.05,-0.05,0.08
18.190,-0.12,-0.03,-0.05,0.13
18.200,-0.17,0.03,-0.03,0.17
18.210,-0.16,0.05,-0.00,0.17
18.220,-0.11,0.06,0.01,0.13
18.230,-0.07,0.06,-0.03,0.09
18.240,-0.08,0.03,-0.06,0.10
18.250,-0.08,0.03,-0.03,0.09
18.260,-0.09,0.05,0.01,0.10
18.270,-0.11,0.04,-0.02,0.12
18.280,-0.12,0.01,-0.06,0.13
18.290,-0.09,0.01,-0.06,0.11
18.300,-0.07,-0.00,-0.07,0.10
18.310,-0.07,0.00,-0.07,0.10
18.320,-0.08,-0.01,-0.05,0.09
18.330,-0.05,0.01,-0.02,0.05
18.340,-0.01,-0.01,-0.02,0.02
18.350,-0.01,-0.01,-0.02,0.03
18.360,-0.06,-0.02,-0.05,0.08
18.370,-0.09,-0.00,-0.05,0.11
18.380,-0.16,-0.03,-0.05,0.17
18.390,-0.18,-0.01,-0.05,0.19
18.400,-0.20,-0.00,-0.01,0.20
18.410,-0.19,0.00,-0.04,0.20
18.420,-0.15,-0.00,-0.04,0.15
18.430,-0.08,-0.01,-0.04,0.09
18.440,-0.06,-0.01,-0.01,0.06
18.450,-0.05,-0.02,-0.01,0.06
18.460,-0.03,-0.01,0.01,0.04
18.470,-0.06,0.01,0.01,0.06
18.480,-0.07,0.04,0.01,0.08
18.490,-0.10,0.03,-0.00,0.11
18.500,-0.13,0.03,-0.02,0.14
18.510,-0.14,0.01,-0.01,0.14
18.520,-0.13,0.00,0.02,0.13
18.530,-0.10,-0.01,-0.00,0.10
18.540,-0.08,-0.02,-0.03,0.09
18.550,-0.06,-0.03,-0.03,0.08
18.560,-0.03,0.01,-0.02,0.04
18.570,-0.01,0.04,0.01,0.04
18.580,-0.04,0.03,0.01,0.05
18.590,-0.07,0.02,-0.00,0.08
18.600,-0.10,0.02,-0.01,0.10
18.610,-0.11,0.01,-0.01,0.12
18.620,-0.13,0.01,-0.05,0.14
18.630,-0.14,0.00,-0.06,0.15
18.640,-0.15,0.02,-0.03,0.16
18.650,-0.15,0.01,-0.02,0.15
18.660,-0.10,-0.01,-0.05,0.11
18.670,-0.04,-0.03,-0.06,0.08
18.680,-0.07,-0.02,-0.04,0.08
18.690,-0.08,-0.01,-0.01,0.08
18.700,-0.12,-0.02,0.01,0.13
18.710,-0.16,-0.00,-0.00,0.16
18.720,-0.15,-0.02,-0.05,0.16
18.730,-0.12,-0.02,-0.06,0.14
18.740,-0.10,-0.00,-0.04,0.11
18.750,-0.07,-0.01,-0.02,0.08
18.760,-0.07,-0.00,-0.00,0.07
18.770,-0.09,-0.01,-0.02,0.09
18.780,-0.11,-0.02,-0.04,0.12
18.790,-0.08,-0.03,-0.07,0.11
18.800,-0.08,-0.03,-0.08,0.12
18.810,-0.13,-0.01,-0.05,0.14
18.820,-0.14,0.02,-0.05,0.16
18.830,-0.15,0.02,-0.03,0.16
18.840,-0.10,0.01,-0.02,0.10
18.850,-0.08,-0.00,-0.04,0.09
18.861,-0.05,-0.02,-0.08,0.10
18.870,-0.09,-0.04,-0.10,0.14
18.880,-0.13,-0.03,-0.07,0.15
18.890,-0.16,-0.02,-0.05,0.17
18.900,-0.18,-0.02,-0.03,0.19
18.910,-0.17,0.01,-0.00,0.17
18.920,-0.11,0.01,0.04,0.12
18.930,-0.05,-0.02,0.02,0.06
18.940,0.02,-0.08,-0.01,0.08
18.950,0.02,-0.10,-0.07,0.12
18.960,0.01,-0.10,-0.08,0.13
18.970,-0.07,-0.05,-0.08,0.12
18.980,-0.10,-0.00,-0.04,0.11
18.990,-0.13,0.04,-0.00,0.13
19.000,-0.17,0.06,0.04,0.19
19.011,-0.20,0.07,0.02,0.21
19.020,-0.17,0.06,-0.03,0.18
19.030,-0.13,0.03,-0.03,0.13
19.041,-0.08,0.02,-0.05,0.09
19.050,-0.05,0.01,-0.07,0.08
19.061,-0.05,-0.02,-0.05,0.08
19.071,-0.05,-0.01,-0.01,0.05
19.081,-0.10,-0.01,-0.00,0.10
19.091,-0.11,0.01,0.01,0.11
19.101,-0.11,-0.01,0.03,0.11
19.111,-0.11,-0.02,-0.00,0.11
19.121,-0.09,-0.00,-0.03,0.09
19.131,-0.08,-0.02,-0.04,0.10
19.141,-0.09,0.00,-0.05,0.10
19.151,-0.12,0.01,-0.04,0.13
19.161,-0.11,0.00,-0.00,0.11
19.171,-0.07,0.01,-0.00,0.07
19.181,-0.06,-0.02,-0.03,0.07
19.191,-0.08,-0.03,-0.07,0.11
19.201,-0.10,-0.01,-0.08,0.13
19.211,-0.12,-0.00,-0.05,0.13
19.221,-0.11,-0.00,-0.05,0.12
19.231,-0.13,0.00,-0.05,0.14
19.241,-0.12,0.00,-0.06,0.14
19.251,-0.08,0.01,-0.06,0.10
19.261,-0.08,0.01,-0.08,0.12
19.271,-0.10,0.02,-0.06,0.11
19.281,-0.09,0.02,-0.06,0.11
19.291,-0.06,0.01,-0.09,0.11
19.301,-0.07,0.00,-0.08,0.11
19.311,-0.06,0.02,-0.05,0.08
19.321,-0.09,0.03,0.00,0.10
19.331,-0.14,0.05,0.01,0.15
19.341,-0.12,0.02,-0.02,0.12
19.351,-0.07,-0.01,-0.05,0.08
19.361,-0.03,-0.00,-0.06,0.07
19.371,-0.05,0.02,-0.03,0.07
19.381,-0.08,0.02,0.00,0.08
19.391,-0.09,0.03,0.00,0.10
19.401,-0.09,0.02,-0.01,0.10
19.411,-0.11,0.02,-0.02,0.11
19.421,-0.12,0.00,-0.01,0.12
19.431,-0.12,-0.00,-0.03,0.13
19.441,-0.16,-0.02,-0.02,0.17
19.451,-0.16,-0.02,-0.02,0.17
19.461,-0.11,-0.02,-0.02,0.11
19.471,-0.08,-0.03,0.00,0.08
19.481,-0.08,-0.03,-0.00,0.09
19.491,-0.09,-0.04,-0.02,0.10
19.501,-0.10,-0.08,-0.02,0.13
19.511,-0.10,-0.07,-0.05,0.13
19.521,-0.12,-0.06,-0.06,0.15
19.531,-0.11,-0.03,-0.02,0.12
19.541,-0.09,0.01,0.00,0.09
19.551,-0.08,0.01,0.01,0.08
19.561,-0.08,0.01,0.01,0.08
19.571,-0.06,0.01,-0.02,0.06
19.581,-0.07,0.02,-0.03,0.08
19.591,-0.06,0.02,-0.05,0.08
19.601,-0.09,0.02,-0.04,0.10
19.611,-0.10,0.03,-0.01,0.11
19.621,-0.09,0.06,-0.00,0.11
19.631,-0.11,0.06,0.01,0.12
19.641,-0.13,0.05,0.02,0.14
19.651,-0.12,0.03,-0.00,0.12
19.661,-0.09,-0.02,-0.03,0.10
19.671,-0.06,-0.04,-0.07,0.10
19.681,-0.08,-0.02,-0.07,0.11
19.691,-0.08,0.01,-0.06,0.11
19.701,-0.11,0.02,0.01,0.11
19.711,-0.15,0.04,0.02,0.16
19.721,-0.14,0.04,0.01,0.15
19.731,-0.16,0.01,0.02,0.16
19.741,-0.11,-0.05,-0.04,0.13
19.751,-0.03,-0.09,-0.09,0.13
19.761,0.01,-0.09,-0.08,0.12
19.771,-0.01,-0.05,-0.03,0.06
19.781,-0.10,-0.00,0.02,0.10
19.791,-0.17,0.04,0.05,0.18
19.801,-0.17,0.04,0.02,0.17
19.811,-0.12,0.04,-0.03,0.13
19.821,-0.10,0.02,-0.06,0.12
19.831,-0.09,-0.04,-0.13,0.17
19.841,-0.07,-0.05,-0.10,0.13
19.851,-0.03,-0.02,-0.04,0.06
19.861,-0.02,-0.00,0.03,0.04
19.871,0.03,0.00,0.08,0.09
19.881,0.04,0.02,0.10,0.11
19.891,0.11,-0.04,0.11,0.16
19.901,0.16,-0.05,0.12,0.21
19.911,0.26,-0.05,0.18,0.32
19.921,0.19,-0.03,0.18,0.26
19.931,0.08,-0.06,0.07,0.12
19.941,-0.01,-0.07,0.00,0.07
19.951,-0.12,0.01,-0.03,0.12
19.961,0.01,0.11,0.02,0.12
19.971,0.35,0.23,0.17,0.45
19.981,0.43,0.23,0.40,0.63
19.991,0.29,0.10,0.35,0.47
20.002,0.10,0.08,-0.04,0.13
20.011,-0.69,1.03,0.09,1.24
20.021,0.02,0.86,0.54,1.01
20.031,0.45,0.21,0.18,0.53
20.041,0.13,0.09,-0.33,0.37
20.051,0.21,-0.19,-0.29,0.40
20.061,0.28,-0.27,0.04,0.39
20.071,0.31,-0.24,0.21,0.45
20.081,0.37,-0.33,0.15,0.52
20.091,0.34,-0.45,0.05,0.56
20.101,0.15,-0.42,-0.05,0.45
20.111,0.02,-0.26,-0.12,0.29
20.121,0.09,-0.28,0.13,0.32
20.131,0.22,-0.37,0.27,0.51
20.141,0.33,-0.31,0.06,0.45
20.151,0.22,-0.20,0.01,0.29
20.161,0.08,-0.11,0.12,0.18
20.171,0.03,0.13,0.11,0.18
20.181,-0.12,0.09,-0.04,0.15
20.191,-0.01,0.04,-0.20,0.21
20.201,0.27,0.14,-0.17,0.34
20.211,0.23,0.01,0.20,0.31
20.221,0.08,-0.04,0.37,0.38
20.231,0.19,0.11,0.32,0.39
20.241,0.36,0.26,0.60,0.75
20.251,0.48,0.57,0.62,0.97
20.261,0.39,0.62,0.48,0.88
20.271,0.11,0.36,0.64,0.74
20.281,-0.05,-0.01,0.87,0.88
20.292,-0.06,-0.21,0.86,0.89
20.301,-0.14,0.02,0.62,0.63
20.311,-0.62,0.25,0.80,1.05
20.321,-1.51,0.29,1.25,1.98
20.331,-1.41,0.53,1.10,1.87
20.342,-0.79,0.92,0.68,1.39
20.352,-0.62,1.12,1.32,1.85
20.362,-1.08,1.08,0.89,1.77
20.371,-0.96,0.59,0.48,1.23
20.381,-0.71,-0.20,1.20,1.41
20.392,-1.05,-1.16,2.23,2.72
20.401,-1.22,-0.31,-0.35,1.30
20.411,-1.77,-0.51,0.19,1.85
20.422,-1.69,-0.26,0.36,1.75
20.432,-2.22,0.47,0.77,2.39
20.442,-2.24,1.47,0.59,2.74
20.452,-1.48,1.88,-0.01,2.40
20.462,-0.65,1.45,0.21,1.60
20.472,0.88,0.49,-0.38,1.08
20.481,1.34,-0.56,-0.23,1.48
20.492,1.64,-1.08,0.57,2.05
20.502,2.46,-1.36,0.98,2.98
20.512,2.36,-1.61,1.16,3.09
20.522,1.81,-1.75,1.25,2.81
20.531,1.01,-1.68,1.23,2.31
20.542,0.27,-1.47,1.18,1.90
20.552,0.10,-1.40,0.63,1.54
20.562,-0.18,-1.14,-0.09,1.16
20.572,0.37,-0.99,-0.82,1.34
20.582,1.01,-1.62,-0.65,2.01
20.592,0.17,-2.50,0.10,2.51
20.602,-0.07,-2.78,0.54,2.83
20.612,-0.25,-2.35,0.44,2.40
20.622,-0.29,-1.76,0.49,1.85
20.632,-0.10,-1.13,0.24,1.16
20.642,0.34,-0.61,-0.30,0.76
20.652,0.68,-0.29,-0.57,0.94
20.662,1.16,-0.14,-0.49,1.27
20.672,1.32,-0.29,-0.13,1.36
20.682,1.04,-0.74,0.18,1.29
20.692,0.61,-1.21,0.18,1.37
20.702,0.29,-1.43,-0.30,1.49
20.712,0.13,-1.49,-0.78,1.69
20.722,0.01,-1.48,-0.76,1.66
20.732,0.31,-1.36,-0.51,1.49
20.742,0.61,-1.35,-0.31,1.51
20.752,0.85,-1.35,-0.08,1.60
20.762,0.84,-1.27,0.05,1.53
20.772,0.61,-1.13,0.03,1.29
20.782,0.34,-0.90,-0.13,0.97
20.792,0.07,-0.68,-0.38,0.78
20.802,-0.14,-0.49,-0.47,0.70
20.812,-0.30,-0.38,-0.54,0.72
20.822,-0.41,-0.32,-0.66,0.84
20.832,-0.45,-0.35,-0.78,0.97
20.842,-0.31,-0.47,-0.74,0.93
20.852,0.03,-0.63,-0.64,0.90
20.862,0.39,-0.83,-0.48,1.03
20.872,0.52,-0.85,-0.21,1.02
20.882,0.49,-0.88,0.09,1.01
20.892,0.30,-0.70,0.31,0.82
20.902,0.58,-0.33,-0.39,0.77
20.912,0.34,-0.58,-0.72,0.98
20.922,0.22,-0.54,-0.80,0.99
20.932,0.29,-0.41,-0.61,0.79
20.942,0.33,-0.31,-0.25,0.52
20.952,0.64,-0.14,0.06,0.66
