time,ax,ay,az,atotal
0.000,0.54,0.07,0.86,1.01
0.010,0.57,0.13,1.01,1.17
0.020,0.54,0.14,1.07,1.21
0.030,0.71,0.14,1.05,1.27
0.040,0.85,0.10,0.70,1.11
0.050,0.70,0.00,0.19,0.72
0.060,0.48,0.01,-0.13,0.49
0.070,0.44,0.00,0.00,0.44
0.080,0.20,0.01,0.79,0.82
0.090,-0.22,0.35,1.05,1.13
0.100,-0.06,0.31,1.19,1.23
0.110,-0.20,-0.12,1.61,1.63
0.120,-1.58,-0.16,1.80,2.40
0.130,-0.87,0.38,1.47,1.75
0.144,0.37,0.53,1.07,1.25
0.154,1.20,0.36,0.55,1.37
0.164,1.56,0.10,0.16,1.57
0.174,1.65,-0.00,0.09,1.65
0.184,1.32,0.10,-0.04,1.32
0.194,0.83,0.00,-0.36,0.90
0.204,0.91,-0.47,-0.49,1.13
0.214,0.61,-0.56,-0.83,1.17
0.224,0.18,-0.62,-1.07,1.25
0.234,-0.07,-0.78,-0.83,1.14
0.244,-0.23,-0.53,-0.26,0.63
0.254,-0.13,0.14,0.67,0.70
0.264,-0.22,0.47,1.25,1.35
0.274,-0.18,0.30,1.28,1.32
0.284,0.04,0.18,1.11,1.12
0.294,0.20,0.25,0.90,0.96
0.304,0.35,-0.08,0.68,0.77
0.314,0.44,-0.58,0.60,0.95
0.324,0.37,-0.79,0.78,1.17
0.334,0.35,-0.82,1.13,1.43
0.344,0.70,-0.83,1.63,1.96
0.354,1.18,-1.12,2.35,2.86
0.364,1.29,-1.25,3.18,3.65
0.374,0.88,-0.77,3.80,3.97
0.384,0.47,-0.62,3.99,4.07
0.394,0.31,-0.92,3.85,3.97
0.404,-0.22,-1.19,3.40,3.61
0.414,-0.60,-1.34,2.81,3.17
0.424,-0.10,-1.65,2.52,3.01
0.434,0.59,-1.72,2.57,3.15
0.444,1.37,-1.16,3.00,3.49
0.454,2.35,-0.72,3.19,4.02
0.464,2.54,-0.75,3.16,4.12
0.474,2.21,-0.98,3.10,3.93
0.484,1.48,-1.06,2.87,3.40
0.494,0.77,-1.04,2.36,2.69
0.504,0.84,-1.13,1.90,2.37
0.514,1.36,-1.12,1.73,2.47
0.524,1.70,-0.94,1.84,2.68
0.534,1.67,-0.78,2.13,2.81
0.544,1.11,-0.74,2.25,2.62
0.554,0.44,-0.79,2.07,2.26
0.564,-0.12,-0.83,1.69,1.89
0.574,-0.50,-0.70,1.08,1.38
0.584,-0.31,-0.47,0.17,0.59
0.594,0.30,-0.36,-0.82,0.94
0.604,0.83,-0.28,-1.80,2.01
0.614,1.19,-0.17,-2.73,2.99
0.624,1.20,-0.34,-3.42,3.64
0.634,0.92,-0.41,-3.86,3.99
0.644,0.70,-0.35,-4.16,4.23
0.654,0.77,-0.27,-4.37,4.45
0.664,1.15,-0.19,-4.65,4.79
0.674,1.65,-0.26,-5.15,5.41
0.684,1.90,-0.45,-5.58,5.91
0.694,1.46,-0.33,-5.51,5.71
0.704,0.62,-0.12,-5.04,5.08
0.714,-0.03,-0.14,-4.65,4.65
0.724,-0.27,-0.28,-4.03,4.05
0.734,-3.21,-0.74,2.87,4.37
0.744,-1.23,0.33,3.29,3.52
0.754,-0.78,-0.23,-2.24,2.39
0.764,-2.56,-1.01,2.26,3.56
0.774,-1.86,0.48,0.87,2.11
0.784,-1.46,0.49,-0.54,1.63
0.794,-0.50,0.26,-0.45,0.72
0.804,0.21,0.40,-0.99,1.09
0.814,0.85,0.56,-1.35,1.69
0.824,0.85,0.63,-1.63,1.94
0.834,1.24,0.62,-2.22,2.61
0.844,3.18,0.56,-2.50,4.08
0.854,1.95,-0.10,-1.48,2.45
0.864,1.39,-0.05,-1.20,1.84
0.874,0.95,0.26,-1.42,1.73
0.884,0.09,0.39,-0.88,0.97
0.894,-0.89,0.26,-0.52,1.06
0.904,-1.69,0.14,-1.20,2.07
0.914,-1.69,0.17,-2.14,2.73
0.924,-0.87,0.09,-2.16,2.33
0.934,0.92,-0.31,-1.70,1.96
0.944,2.13,-1.22,-0.77,2.58
0.954,2.03,-0.79,-0.92,2.37
0.964,0.81,0.64,-1.40,1.74
0.974,0.01,0.47,-0.89,1.01
0.984,-0.38,0.08,-0.09,0.40
0.994,-0.55,-0.18,0.45,0.73
1.004,-0.41,-0.14,-0.13,0.46
1.014,-0.54,0.06,-0.83,0.99
1.024,-0.74,0.07,-0.73,1.04
1.034,-1.06,-0.12,0.04,1.07
1.044,-0.97,-0.28,0.04,1.01
1.054,-0.50,0.14,-0.53,0.74
1.064,-0.43,0.49,-0.03,0.65
1.074,-0.41,0.66,0.42,0.88
1.084,-0.43,0.68,0.44,0.92
1.094,-0.66,0.53,0.16,0.87
1.104,-0.81,0.39,-0.34,0.96
1.114,-0.92,0.36,-0.54,1.12
1.124,-0.53,0.49,-0.35,0.81
1.134,-0.21,0.83,-0.19,0.88
1.144,-0.32,1.34,-0.48,1.45
1.155,-0.70,1.37,-0.24,1.55
1.165,-0.79,0.72,0.86,1.37
1.174,-0.21,0.92,0.22,0.97
1.184,-0.24,1.20,-0.75,1.43
1.195,-0.59,0.73,-0.69,1.16
1.204,-0.65,0.37,-0.43,0.86
1.214,-0.49,0.30,-0.29,0.64
1.225,0.08,0.37,0.01,0.37
1.234,0.66,0.84,-0.02,1.06
1.244,0.65,1.40,-0.00,1.54
1.255,0.85,1.01,0.21,1.33
1.264,1.34,0.65,-0.22,1.50
1.275,0.91,0.53,-0.32,1.10
1.285,0.52,0.12,0.39,0.66
1.295,0.20,0.12,0.59,0.63
1.305,-0.06,0.23,0.51,0.56
1.315,-0.18,0.19,0.48,0.55
1.325,-0.26,0.14,0.36,0.47
1.335,-0.26,0.13,0.01,0.29
1.345,-0.10,0.29,-0.37,0.48
1.355,0.19,0.54,-0.66,0.88
1.365,0.33,0.64,-0.47,0.86
1.375,0.23,0.66,0.13,0.71
1.385,0.11,0.60,0.42,0.74
1.395,-0.31,0.41,0.40,0.65
1.405,-0.79,0.17,0.27,0.85
1.415,-0.91,0.06,0.27,0.95
1.425,-1.09,0.10,0.44,1.18
1.435,-1.21,0.28,0.55,1.36
1.445,-1.23,0.41,0.53,1.40
1.455,-0.97,0.42,0.56,1.20
1.465,-0.64,0.52,0.58,1.01
1.475,-0.26,0.53,0.30,0.66
1.485,0.06,0.45,-0.13,0.47
1.495,0.17,0.30,-0.41,0.54
1.505,0.08,0.10,-0.58,0.60
1.515,0.00,0.10,-0.83,0.84
1.525,-0.21,0.21,-0.64,0.71
1.535,-0.38,0.17,-0.22,0.47
1.545,-0.19,0.25,-0.24,0.39
1.555,-0.01,0.35,-0.53,0.64
1.565,-0.06,0.32,-0.38,0.50
1.575,-0.02,0.36,-0.05,0.36
1.585,0.14,0.55,0.17,0.59
1.595,0.15,0.72,0.38,0.83
1.605,0.12,0.76,0.33,0.83
1.615,0.02,0.70,0.14,0.71
1.625,-0.18,0.64,0.07,0.67
1.635,-0.29,0.66,0.03,0.72
1.645,-0.43,0.71,0.11,0.84
1.655,-0.74,0.72,0.37,1.10
1.665,-1.09,0.69,0.64,1.44
1.675,-1.12,0.59,0.96,1.58
1.685,-0.91,0.54,0.99,1.45
1.695,-0.72,0.44,0.69,1.09
1.705,-0.49,0.26,0.40,0.68
1.715,-0.34,0.15,0.32,0.49
1.725,-0.22,0.15,0.43,0.50
1.735,-0.13,0.18,0.44,0.49
1.745,0.12,0.21,0.32,0.40
1.755,0.41,0.15,0.16,0.46
1.765,0.62,0.08,0.16,0.64
1.775,0.82,0.06,0.01,0.82
1.785,1.04,0.02,-0.19,1.06
1.795,1.11,0.01,-0.23,1.13
1.805,1.06,0.06,-0.33,1.11
1.815,1.07,0.15,-0.66,1.27
1.825,0.92,0.17,-0.61,1.11
1.835,0.55,0.27,-0.18,0.64
1.845,0.18,0.38,0.15,0.45
1.855,0.06,0.43,0.16,0.47
1.865,0.20,0.55,-0.10,0.59
1.875,0.16,0.65,-0.11,0.68
1.885,0.04,0.73,-0.08,0.73
1.895,0.21,0.76,-0.38,0.88
1.905,0.25,0.71,-0.49,0.90
1.915,0.06,0.66,-0.27,0.72
1.925,-0.09,0.72,-0.05,0.73
1.935,-0.21,0.77,0.09,0.81
1.945,-0.29,0.85,0.01,0.90
1.955,-0.37,0.86,-0.11,0.94
1.965,-0.50,0.72,-0.21,0.91
1.975,-0.56,0.55,-0.28,0.83
1.985,-0.51,0.50,-0.17,0.74
1.995,-0.39,0.57,-0.09,0.70
2.005,-0.12,0.58,-0.22,0.63
2.015,0.01,0.46,-0.15,0.49
2.025,0.05,0.32,-0.22,0.39
2.035,-0.04,0.15,-0.22,0.27
2.045,-0.21,0.03,-0.14,0.25
2.055,-0.22,-0.05,-0.20,0.31
2.065,-0.14,-0.13,-0.35,0.40
2.075,-0.05,-0.16,-0.49,0.51
2.085,0.07,-0.12,-0.76,0.77
2.095,0.04,-0.12,-0.82,0.83
2.105,0.08,-0.11,-0.56,0.58
2.115,0.14,-0.00,-0.01,0.14
2.125,0.30,0.12,0.19,0.37
2.135,0.44,0.22,0.25,0.55
2.145,0.36,0.29,0.19,0.50
2.155,0.17,0.29,-0.01,0.33
2.165,-0.11,0.26,-0.14,0.31
2.175,-0.26,0.24,-0.29,0.46
2.185,-0.26,0.24,-0.34,0.49
2.195,-0.20,0.28,-0.29,0.45
2.205,-0.13,0.44,-0.31,0.56
2.215,-0.14,0.59,-0.31,0.68
2.225,-0.22,0.59,-0.08,0.63
2.235,-0.27,0.53,0.10,0.60
2.245,-0.26,0.46,0.24,0.58
2.255,-0.18,0.50,0.27,0.59
2.265,-0.19,0.60,-0.04,0.63
2.275,-0.25,0.48,-0.26,0.60
2.285,-0.24,0.32,-0.31,0.51
2.295,-0.19,0.26,-0.39,0.51
2.305,-0.25,0.27,-0.48,0.60
2.315,-0.29,0.34,-0.53,0.69
2.325,-0.32,0.37,-0.33,0.59
2.335,-0.38,0.37,-0.06,0.53
2.345,-0.30,0.44,-0.04,0.53
2.355,-0.14,0.41,-0.09,0.44
2.365,-0.08,0.39,-0.18,0.44
2.375,0.04,0.36,-0.29,0.46
2.385,0.02,0.29,-0.32,0.43
2.395,-0.14,0.24,-0.30,0.41
2.405,-0.13,0.23,-0.25,0.36
2.415,-0.01,0.31,-0.25,0.40
2.425,0.02,0.35,-0.14,0.38
2.435,0.03,0.34,-0.00,0.34
2.445,0.02,0.30,0.10,0.31
2.455,0.03,0.23,0.11,0.26
2.465,0.10,0.21,0.00,0.23
2.475,0.13,0.24,-0.15,0.31
2.485,0.14,0.17,-0.17,0.28
2.495,0.13,0.18,-0.21,0.31
2.505,0.15,0.25,-0.10,0.30
2.515,0.14,0.36,0.16,0.41
2.525,0.01,0.44,0.28,0.52
2.535,-0.07,0.44,0.21,0.49
2.545,-0.04,0.39,0.22,0.45
2.555,-0.05,0.36,0.10,0.38
2.565,-0.15,0.33,-0.15,0.39
2.575,-0.28,0.24,-0.26,0.45
2.585,-0.35,0.16,-0.30,0.48
2.595,-0.26,0.23,-0.41,0.54
2.606,-0.22,0.28,-0.52,0.63
2.615,-0.22,0.25,-0.41,0.53
2.625,-0.37,0.24,-0.22,0.49
2.636,-0.38,0.31,-0.12,0.50
2.646,-0.29,0.38,-0.03,0.48
2.655,-0.32,0.45,0.04,0.55
2.665,-0.34,0.47,-0.07,0.59
2.676,-0.33,0.46,-0.16,0.59
2.685,-0.38,0.40,-0.18,0.58
2.696,-0.33,0.35,-0.20,0.52
2.705,-0.19,0.43,-0.20,0.51
2.716,-0.10,0.51,-0.16,0.55
2.725,-0.12,0.47,-0.05,0.48
2.735,-0.17,0.40,0.05,0.44
2.746,-0.12,0.39,-0.02,0.41
2.756,-0.04,0.29,-0.10,0.31
2.766,0.03,0.23,-0.13,0.26
2.776,0.00,0.23,-0.08,0.24
2.785,-0.03,0.23,-0.11,0.25
2.795,0.01,0.25,-0.13,0.28
2.806,0.05,0.25,-0.06,0.26
2.815,0.04,0.25,-0.08,0.27
2.825,-0.01,0.24,-0.05,0.24
2.836,0.03,0.27,0.06,0.27
2.845,0.03,0.29,0.10,0.30
2.856,0.04,0.28,0.14,0.32
2.866,0.01,0.24,0.11,0.27
2.876,0.01,0.19,0.02,0.19
2.886,0.01,0.14,-0.05,0.15
2.896,-0.02,0.18,-0.12,0.21
2.906,-0.08,0.21,-0.21,0.30
2.916,-0.04,0.19,-0.51,0.55
2.926,-0.03,0.08,-0.60,0.61
2.936,-0.13,-0.07,-0.44,0.46
2.946,-0.15,-0.11,-0.19,0.27
2.956,-0.25,-0.04,-0.06,0.26
2.966,-0.29,0.05,-0.03,0.29
2.976,-0.23,0.12,-0.06,0.27
2.986,-0.16,0.18,-0.11,0.26
2.996,-0.14,0.21,-0.14,0.29
3.006,-0.05,0.22,-0.22,0.32
3.016,0.10,0.22,-0.49,0.55
3.026,0.17,0.21,-0.59,0.65
3.036,0.04,0.23,-0.41,0.47
3.046,-0.14,0.24,-0.13,0.31
3.056,-0.30,0.31,0.13,0.45
3.066,-0.39,0.36,0.27,0.60
3.076,-0.40,0.35,0.30,0.62
3.086,-0.35,0.32,0.26,0.54
3.096,-0.26,0.38,0.17,0.49
3.106,-0.16,0.41,0.02,0.44
3.116,-0.08,0.41,-0.12,0.43
3.126,-0.03,0.41,-0.24,0.48
3.136,-0.02,0.38,-0.23,0.44
3.146,-0.01,0.43,-0.09,0.44
3.156,-0.04,0.48,0.09,0.49
3.166,-0.05,0.53,0.17,0.56
3.176,-0.03,0.50,0.23,0.55
3.186,0.01,0.45,0.18,0.48
3.196,0.04,0.39,0.03,0.39
3.206,0.03,0.28,-0.21,0.35
3.216,0.02,0.20,-0.35,0.41
3.226,-0.01,0.21,-0.45,0.49
3.236,-0.19,0.24,-0.43,0.53
3.246,-0.43,0.27,-0.31,0.59
3.256,-0.57,0.36,-0.05,0.67
3.266,-0.59,0.48,0.24,0.80
3.276,-0.62,0.60,0.32,0.92
3.286,-0.73,0.61,0.23,0.98
3.296,-0.79,0.51,0.23,0.97
3.306,-0.62,0.35,0.14,0.72
3.316,-0.42,0.19,-0.07,0.47
3.326,-0.24,0.09,-0.23,0.34
3.336,-0.02,0.01,-0.45,0.45
3.346,0.10,0.03,-0.55,0.56
3.356,0.13,0.09,-0.57,0.59
3.366,0.09,0.08,-0.54,0.55
3.376,0.08,0.03,-0.54,0.54
3.386,0.04,-0.01,-0.44,0.44
3.396,-0.03,0.04,-0.34,0.35
3.406,-0.16,0.13,-0.19,0.28
3.416,-0.19,0.15,-0.05,0.25
3.426,-0.16,0.16,-0.03,0.23
3.436,-0.08,0.16,-0.04,0.18
3.446,0.04,0.21,-0.12,0.24
3.456,0.16,0.24,-0.15,0.33
3.466,0.22,0.32,-0.12,0.41
3.476,0.21,0.34,-0.05,0.40
3.486,0.15,0.30,-0.03,0.33
3.496,0.14,0.24,-0.11,0.30
3.506,0.08,0.18,-0.04,0.20
3.516,0.01,0.16,0.16,0.22
3.526,-0.03,0.15,0.36,0.39
3.536,-0.06,0.16,0.40,0.44
3.546,0.01,0.19,0.26,0.32
3.556,0.14,0.18,0.11,0.25
3.566,0.13,0.25,-0.06,0.29
3.576,0.12,0.29,-0.11,0.33
3.586,0.09,0.23,-0.05,0.25
3.596,-0.06,0.15,0.02,0.17
3.606,-0.16,0.15,0.02,0.22
3.616,-0.21,0.19,0.06,0.29
3.626,-0.27,0.23,0.16,0.39
3.636,-0.31,0.25,0.12,0.42
3.646,-0.34,0.22,0.03,0.41
3.656,-0.32,0.20,-0.12,0.40
3.666,-0.29,0.20,-0.12,0.37
3.676,-0.26,0.22,-0.10,0.36
3.686,-0.25,0.26,-0.12,0.38
3.696,-0.22,0.30,-0.17,0.41
3.706,-0.21,0.32,-0.22,0.44
3.716,-0.19,0.30,-0.19,0.41
3.726,-0.19,0.25,-0.07,0.33
3.736,-0.20,0.23,0.03,0.30
3.746,-0.15,0.23,0.01,0.27
3.756,-0.06,0.30,-0.05,0.31
3.766,0.01,0.27,-0.08,0.28
3.776,0.09,0.22,-0.13,0.26
3.786,0.23,0.17,-0.21,0.35
3.796,0.26,0.20,-0.21,0.39
3.806,0.23,0.26,-0.22,0.41
3.816,0.16,0.28,-0.22,0.39
3.826,0.09,0.26,-0.14,0.31
3.836,0.01,0.27,-0.11,0.29
3.846,-0.11,0.32,-0.10,0.35
3.857,-0.19,0.32,-0.05,0.38
3.866,-0.16,0.30,-0.05,0.34
3.876,-0.13,0.28,-0.10,0.33
3.886,-0.13,0.27,-0.12,0.32
3.896,-0.14,0.25,-0.11,0.30
3.906,-0.16,0.25,-0.04,0.31
3.916,-0.21,0.27,-0.01,0.34
3.926,-0.23,0.27,-0.03,0.36
3.936,-0.21,0.19,0.01,0.28
3.946,-0.18,0.16,-0.01,0.25
3.957,-0.12,0.19,-0.12,0.26
3.966,-0.14,0.20,-0.08,0.26
3.976,-0.18,0.22,-0.06,0.29
3.986,-0.13,0.19,-0.14,0.27
3.997,-0.18,0.15,-0.08,0.25
4.003,-0.20,0.17,-0.03,0.26
4.013,-0.15,0.21,-0.02,0.26
4.023,-0.13,0.22,-0.19,0.32
4.033,-0.14,0.12,-0.23,0.30
4.042,-0.16,0.06,-0.22,0.28
4.053,-0.13,0.06,-0.13,0.19
4.063,-0.13,0.12,0.01,0.18
4.073,-0.22,0.18,0.06,0.29
4.083,-0.26,0.19,0.07,0.33
4.093,-0.25,0.11,0.02,0.27
4.103,-0.21,0.06,-0.04,0.22
4.113,-0.08,0.11,-0.24,0.28
4.123,0.03,0.11,-0.35,0.37
4.133,-0.03,0.14,-0.25,0.28
4.143,-0.11,0.21,-0.06,0.25
4.153,-0.05,0.18,0.07,0.20
4.163,-0.05,0.17,0.09,0.20
4.173,-0.09,0.22,0.04,0.24
4.183,-0.07,0.23,0.05,0.25
4.193,-0.09,0.20,0.11,0.24
4.203,-0.08,0.16,0.08,0.19
4.213,-0.08,0.17,0.00,0.18
4.223,-0.07,0.18,0.02,0.20
4.233,-0.10,0.18,-0.01,0.21
4.243,-0.07,0.14,-0.10,0.19
4.253,-0.05,0.14,-0.07,0.17
4.263,-0.06,0.16,0.00,0.17
4.273,-0.08,0.20,0.06,0.22
4.283,-0.09,0.16,-0.00,0.19
4.293,-0.07,0.14,-0.03,0.16
4.303,-0.09,0.19,-0.02,0.21
4.313,-0.12,0.23,-0.03,0.26
4.323,-0.16,0.17,-0.03,0.23
4.333,-0.16,0.16,-0.08,0.24
4.343,-0.11,0.19,-0.07,0.23
4.353,-0.08,0.23,-0.00,0.25
4.365,-0.13,0.24,0.03,0.27
4.375,-0.16,0.19,0.01,0.25
4.385,-0.15,0.18,-0.05,0.24
4.395,-0.12,0.19,-0.05,0.24
4.405,-0.15,0.19,-0.07,0.25
4.415,-0.10,0.17,-0.12,0.23
4.425,-0.11,0.20,-0.16,0.27
4.436,-0.08,0.23,-0.18,0.30
4.445,-0.10,0.15,-0.15,0.23
4.455,-0.15,0.12,-0.09,0.21
4.465,-0.17,0.13,-0.06,0.22
4.475,-0.17,0.09,-0.07,0.21
4.485,-0.17,0.07,-0.07,0.20
4.496,-0.13,0.07,-0.12,0.19
4.505,-0.12,0.08,-0.08,0.16
4.515,-0.11,0.10,-0.05,0.16
4.525,-0.14,0.11,0.05,0.18
4.535,-0.13,0.13,0.07,0.20
4.545,-0.09,0.13,0.08,0.18
4.555,-0.07,0.14,0.04,0.16
4.565,-0.09,0.14,-0.01,0.17
4.576,-0.09,0.15,-0.05,0.18
4.585,-0.07,0.14,-0.11,0.19
4.595,-0.05,0.14,-0.07,0.17
4.606,-0.09,0.15,-0.02,0.18
4.615,-0.13,0.13,0.00,0.18
4.625,-0.14,0.12,0.01,0.19
4.636,-0.14,0.12,-0.00,0.19
4.645,-0.14,0.10,0.02,0.18
4.655,-0.18,0.15,0.05,0.24
4.665,-0.13,0.17,-0.03,0.22
4.676,-0.12,0.11,-0.10,0.19
4.685,-0.15,0.09,-0.09,0.19
4.696,-0.14,0.12,-0.04,0.19
4.706,-0.11,0.17,-0.05,0.21
4.716,-0.15,0.14,-0.06,0.22
4.726,-0.14,0.11,0.01,0.18
4.736,-0.14,0.15,0.07,0.22
4.746,-0.20,0.22,0.12,0.32
4.756,-0.23,0.21,0.17,0.36
4.766,-0.18,0.16,0.04,0.24
4.776,-0.05,0.12,-0.13,0.18
4.786,0.04,0.14,-0.13,0.19
4.796,0.03,0.15,-0.03,0.15
4.806,0.01,0.10,-0.03,0.11
4.816,0.02,0.06,-0.11,0.13
4.826,0.00,0.07,-0.09,0.11
4.836,-0.01,0.08,-0.01,0.08
4.846,0.03,0.11,0.08,0.14
4.856,0.05,0.10,0.05,0.12
4.866,0.03,0.07,-0.05,0.09
4.876,-0.04,0.04,-0.10,0.11
4.886,-0.12,0.08,-0.00,0.14
4.896,-0.14,0.06,0.08,0.17
4.906,-0.14,0.06,0.08,0.17
4.916,-0.15,0.08,0.04,0.17
4.926,-0.17,0.07,0.01,0.18
4.936,-0.21,0.05,0.00,0.21
4.946,-0.22,0.04,-0.04,0.23
4.956,-0.26,0.06,-0.09,0.28
4.966,-0.24,0.11,-0.16,0.31
4.976,-0.19,0.12,-0.23,0.32
4.986,-0.17,0.11,-0.20,0.29
4.996,-0.16,0.13,-0.15,0.25
5.006,-0.14,0.16,-0.08,0.23
5.016,-0.13,0.22,-0.02,0.25
5.026,-0.16,0.25,-0.03,0.30
5.036,-0.14,0.24,-0.05,0.28
5.046,-0.03,0.26,-0.14,0.30
5.056,0.02,0.25,-0.16,0.30
5.066,0.02,0.24,-0.09,0.25
5.076,0.03,0.25,-0.06,0.26
5.086,0.07,0.25,-0.10,0.28
5.096,0.07,0.21,-0.12,0.25
5.106,-0.01,0.15,-0.07,0.17
5.116,-0.11,0.17,0.00,0.20
5.126,-0.22,0.16,0.06,0.28
5.136,-0.28,0.13,0.10,0.32
5.146,-0.27,0.12,-0.02,0.29
5.156,-0.22,0.07,-0.05,0.23
5.166,-0.17,0.04,-0.01,0.17
5.176,-0.15,0.05,0.05,0.16
5.186,-0.10,0.06,0.06,0.13
5.196,-0.04,0.08,-0.09,0.13
5.206,-0.07,0.05,-0.11,0.14
5.216,-0.12,0.00,-0.04,0.13
5.226,-0.14,0.04,0.08,0.17
5.236,-0.15,0.11,0.08,0.20
5.246,-0.12,0.13,0.05,0.19
5.256,-0.09,0.13,0.06,0.17
5.266,-0.01,0.18,0.05,0.19
5.276,0.03,0.25,0.00,0.25
5.286,0.06,0.25,-0.04,0.26
5.296,0.06,0.23,-0.08,0.25
5.306,0.14,0.20,-0.28,0.37
5.316,0.24,0.13,-0.51,0.58
5.326,0.18,0.05,-0.55,0.58
5.336,0.06,0.02,-0.26,0.27
5.346,-0.05,0.05,0.01,0.08
5.356,-0.18,0.08,0.24,0.31
5.366,-0.25,0.10,0.22,0.35
5.376,-0.28,0.05,0.00,0.28
5.386,-0.26,-0.04,-0.15,0.30
5.396,-0.24,-0.07,-0.16,0.30
5.406,-0.28,-0.02,-0.07,0.29
5.416,-0.27,0.06,0.04,0.28
5.426,-0.29,0.09,0.05,0.31
5.436,-0.36,0.06,0.09,0.38
5.446,-0.37,0.06,0.15,0.41
5.456,-0.36,0.10,0.12,0.39
5.466,-0.31,0.13,-0.03,0.33
5.476,-0.29,0.10,-0.19,0.37
5.486,-0.31,0.06,-0.24,0.40
5.496,-0.35,0.04,-0.13,0.38
5.506,-0.35,0.10,-0.05,0.37
5.516,-0.29,0.15,-0.08,0.33
5.526,-0.21,0.15,-0.12,0.28
5.536,-0.22,0.15,-0.08,0.28
5.546,-0.26,0.12,0.01,0.29
5.556,-0.18,0.10,0.03,0.21
5.566,-0.11,0.12,0.00,0.16
5.576,-0.08,0.18,-0.08,0.21
5.586,-0.01,0.14,-0.11,0.18
5.596,0.02,0.11,-0.06,0.13
5.606,0.04,0.15,-0.08,0.17
5.616,0.02,0.15,-0.05,0.16
5.626,0.08,0.14,-0.09,0.18
5.636,0.08,0.15,-0.07,0.18
5.646,0.01,0.21,-0.01,0.21
5.657,-0.06,0.22,0.09,0.24
5.666,-0.12,0.20,0.15,0.28
5.676,-0.14,0.22,0.12,0.29
5.686,-0.16,0.21,0.02,0.27
5.696,-0.16,0.17,0.05,0.24
5.706,-0.16,0.13,0.08,0.22
5.716,-0.08,0.11,-0.13,0.18
5.726,0.03,0.03,-0.21,0.21
5.736,0.08,0.00,-0.11,0.14
5.746,0.10,0.05,0.01,0.11
5.756,0.10,0.13,0.07,0.18
5.766,0.04,0.12,0.06,0.14
5.776,-0.02,0.05,-0.02,0.06
5.786,-0.08,0.03,-0.07,0.11
5.796,-0.16,0.05,0.01,0.16
5.806,-0.24,0.10,0.13,0.29
5.816,-0.26,0.14,0.10,0.31
5.826,-0.27,0.13,0.04,0.30
5.836,-0.24,0.10,-0.03,0.26
5.846,-0.13,0.09,-0.14,0.21
5.857,-0.08,0.08,-0.17,0.20
5.866,-0.05,0.08,-0.13,0.16
5.876,-0.01,0.09,-0.13,0.16
5.886,-0.04,0.08,-0.15,0.18
5.896,-0.15,0.05,-0.09,0.18
5.906,-0.19,0.04,-0.03,0.20
5.916,-0.21,0.08,0.02,0.22
5.926,-0.22,0.11,0.04,0.25
5.936,-0.21,0.10,0.04,0.24
5.946,-0.11,0.06,-0.01,0.13
5.956,0.03,0.06,-0.12,0.14
5.966,0.10,0.04,-0.23,0.25
5.977,0.09,0.04,-0.27,0.28
5.986,0.05,-0.02,-0.26,0.27
5.996,0.06,-0.01,-0.18,0.19
6.006,-0.02,0.03,-0.11,0.12
6.016,-0.15,0.04,-0.06,0.16
6.026,-0.25,0.03,0.01,0.25
6.036,-0.25,0.06,0.02,0.26
6.047,-0.24,0.08,0.02,0.25
6.057,-0.21,0.10,-0.04,0.24
6.066,-0.17,0.07,-0.10,0.21
6.076,-0.15,0.05,-0.17,0.23
6.086,-0.13,0.04,-0.14,0.20
6.096,-0.14,0.08,-0.09,0.18
6.106,-0.12,0.06,0.00,0.14
6.116,-0.12,0.04,0.07,0.15
6.126,-0.12,0.07,0.11,0.18
6.136,-0.10,0.13,0.11,0.19
6.146,-0.08,0.15,0.05,0.18
6.157,-0.11,0.12,0.01,0.16
6.166,-0.12,0.09,-0.12,0.20
6.176,-0.10,0.05,-0.20,0.23
6.186,-0.06,0.04,-0.17,0.19
6.197,-0.09,0.04,-0.02,0.11
6.207,-0.06,0.05,0.08,0.11
6.217,-0.10,0.07,0.11,0.16
6.227,-0.13,0.09,0.11,0.19
6.237,-0.14,0.08,0.09,0.18
6.247,-0.15,0.07,0.11,0.20
6.257,-0.14,0.07,0.11,0.19
6.267,-0.10,0.08,-0.01,0.12
6.277,-0.04,0.05,-0.07,0.09
6.287,0.02,0.07,-0.07,0.11
6.297,0.04,0.09,0.02,0.10
6.307,0.05,0.11,0.04,0.13
6.317,0.13,0.07,0.02,0.15
6.327,0.18,0.04,0.05,0.19
6.337,0.14,0.05,0.05,0.16
6.347,0.09,0.06,0.07,0.13
6.357,0.08,0.06,0.04,0.10
6.367,0.03,0.06,0.03,0.07
6.377,-0.03,0.04,-0.01,0.05
6.387,-0.07,0.06,-0.04,0.10
6.397,-0.13,0.06,-0.04,0.15
6.407,-0.18,0.07,-0.03,0.19
6.417,-0.23,0.10,-0.07,0.26
6.427,-0.28,0.11,-0.08,0.31
6.437,-0.32,0.08,-0.07,0.33
6.447,-0.28,0.10,-0.10,0.31
6.457,-0.26,0.09,-0.12,0.30
6.467,-0.31,0.08,-0.12,0.34
6.477,-0.33,0.06,-0.11,0.35
6.487,-0.29,0.08,-0.08,0.32
6.497,-0.34,0.08,-0.04,0.36
6.507,-0.39,0.10,-0.01,0.40
6.517,-0.31,0.09,-0.03,0.33
6.527,-0.25,0.09,-0.04,0.27
6.537,-0.25,0.12,-0.01,0.27
6.547,-0.26,0.14,0.03,0.29
6.557,-0.26,0.15,0.08,0.31
6.567,-0.26,0.15,0.07,0.31
6.577,-0.19,0.19,-0.02,0.27
6.587,-0.09,0.17,-0.15,0.24
6.597,-0.05,0.10,-0.12,0.16
6.607,-0.06,0.09,-0.03,0.12
6.617,-0.04,0.16,-0.04,0.17
6.627,-0.11,0.10,-0.03,0.15
6.637,-0.10,0.08,0.02,0.13
6.647,-0.08,0.11,0.07,0.15
6.657,-0.09,0.14,0.12,0.20
6.667,-0.14,0.14,0.11,0.23
6.677,-0.16,0.10,0.00,0.18
6.687,-0.14,0.05,-0.07,0.16
6.697,-0.14,0.03,-0.02,0.14
6.707,-0.18,0.08,0.03,0.20
6.717,-0.17,0.08,0.05,0.19
6.727,-0.16,0.04,0.06,0.18
6.737,-0.16,0.02,0.03,0.16
6.747,-0.09,0.03,0.02,0.10
6.757,-0.03,0.04,0.02,0.05
6.767,-0.05,0.02,-0.00,0.05
6.777,-0.05,-0.01,-0.03,0.06
6.787,-0.02,-0.01,-0.06,0.06
6.797,-0.02,-0.02,-0.09,0.09
6.807,-0.09,-0.04,-0.07,0.12
6.817,-0.11,-0.03,-0.02,0.12
6.827,-0.14,0.02,-0.00,0.14
6.837,-0.13,0.04,-0.02,0.14
6.847,-0.09,0.04,-0.03,0.10
6.857,-0.08,0.04,-0.03,0.10
6.867,-0.12,0.05,-0.01,0.13
6.877,-0.14,0.07,-0.00,0.16
6.887,-0.15,0.07,-0.06,0.18
6.897,-0.13,0.09,-0.09,0.18
6.907,-0.04,0.11,-0.08,0.14
6.917,-0.01,0.11,-0.07,0.13
6.927,-0.07,0.07,-0.07,0.12
6.937,-0.14,0.03,-0.03,0.14
6.947,-0.21,0.01,0.01,0.21
6.957,-0.23,0.02,0.02,0.23
6.967,-0.18,0.05,0.01,0.19
6.977,-0.10,0.09,-0.03,0.14
6.987,-0.06,0.09,-0.03,0.11
6.997,-0.09,0.06,-0.01,0.11
7.007,-0.11,0.06,-0.04,0.14
7.017,-0.12,0.08,-0.04,0.15
7.027,-0.12,0.08,0.03,0.15
7.037,-0.16,0.08,0.08,0.20
7.047,-0.17,0.08,0.07,0.20
7.057,-0.17,0.09,0.10,0.21
7.067,-0.15,0.11,0.11,0.22
7.077,-0.14,0.08,0.08,0.18
7.087,-0.09,0.08,0.02,0.12
7.097,-0.05,0.05,-0.03,0.07
7.107,-0.04,0.06,-0.02,0.07
7.117,-0.10,0.06,-0.01,0.12
7.127,-0.10,0.04,-0.07,0.13
7.137,-0.07,-0.02,-0.03,0.08
7.147,-0.10,0.00,0.08,0.13
7.157,-0.14,0.05,0.16,0.22
7.167,-0.21,0.02,0.20,0.29
7.177,-0.21,-0.00,0.18,0.27
7.187,-0.10,-0.01,0.00,0.10
7.197,0.09,0.01,-0.31,0.32
7.207,0.16,-0.02,-0.29,0.33
7.217,0.05,-0.04,-0.13,0.14
7.227,-0.07,-0.01,0.10,0.13
7.237,-0.18,0.01,0.19,0.27
7.247,-0.24,0.03,0.18,0.30
7.257,-0.22,0.01,0.05,0.23
7.267,-0.11,0.02,-0.11,0.16
7.277,-0.12,0.00,-0.10,0.15
7.287,-0.11,-0.01,-0.07,0.13
7.297,-0.09,0.00,-0.05,0.10
7.307,-0.03,0.01,-0.04,0.05
7.317,-0.03,-0.01,-0.04,0.05
7.327,0.02,0.01,-0.01,0.03
7.337,0.02,0.01,-0.01,0.03
7.347,-0.06,0.02,0.01,0.07
7.357,-0.10,0.04,0.02,0.11
7.367,-0.14,0.03,0.01,0.15
7.377,-0.20,0.02,-0.02,0.20
7.387,-0.22,0.03,-0.06,0.23
7.397,-0.21,0.02,-0.07,0.23
7.407,-0.25,-0.02,-0.04,0.25
7.417,-0.22,-0.03,-0.03,0.23
7.427,-0.10,-0.02,-0.02,0.11
7.437,0.00,-0.03,0.05,0.05
7.447,0.06,-0.01,0.02,0.07
7.457,0.07,0.03,-0.00,0.08
7.467,0.04,0.01,0.04,0.06
7.477,0.02,-0.02,-0.03,0.04
7.487,0.01,-0.03,-0.16,0.17
7.498,-0.01,-0.05,-0.08,0.10
7.507,-0.10,0.00,-0.01,0.10
7.517,-0.14,0.05,-0.01,0.15
7.527,-0.14,0.06,-0.01,0.15
7.537,-0.16,0.07,-0.07,0.19
7.547,-0.16,0.07,-0.13,0.22
7.557,-0.12,0.03,-0.14,0.19
7.567,-0.11,0.00,-0.17,0.20
7.577,-0.16,-0.01,-0.07,0.17
7.587,-0.16,0.02,0.03,0.16
7.597,-0.22,0.07,0.10,0.25
7.607,-0.24,0.11,0.06,0.27
7.617,-0.28,0.05,0.01,0.29
7.628,-0.20,0.06,-0.24,0.32
7.637,-0.15,0.04,-0.32,0.36
7.647,-0.20,0.07,-0.23,0.31
7.657,-0.24,0.12,-0.06,0.27
7.668,-0.24,0.15,0.03,0.28
7.678,-0.25,0.13,0.12,0.31
7.688,-0.26,0.15,0.16,0.34
7.697,-0.17,0.20,0.09,0.28
7.708,-0.11,0.19,-0.01,0.22
7.718,-0.07,0.16,-0.14,0.22
7.728,-0.08,0.10,-0.11,0.17
7.738,-0.12,0.12,0.00,0.17
7.747,-0.15,0.13,0.09,0.22
7.758,-0.14,0.17,0.01,0.22
7.768,-0.14,0.13,-0.03,0.19
7.778,-0.11,0.12,-0.00,0.16
7.788,-0.12,0.13,-0.06,0.19
7.798,-0.09,0.06,-0.09,0.15
7.808,-0.10,0.00,-0.00,0.10
7.818,-0.09,0.08,-0.01,0.12
7.828,-0.07,0.10,-0.07,0.14
7.838,-0.10,0.04,0.00,0.11
7.848,-0.10,0.03,0.04,0.11
7.858,-0.03,0.07,0.02,0.08
7.868,-0.09,0.07,0.05,0.13
7.878,-0.12,0.04,0.12,0.17
7.888,-0.10,0.06,0.09,0.15
7.898,-0.06,0.09,0.01,0.11
7.908,-0.10,0.09,0.01,0.13
7.918,-0.16,0.09,0.02,0.18
7.928,-0.15,0.07,-0.12,0.20
7.938,-0.10,-0.04,-0.16,0.19
7.948,-0.08,-0.06,-0.04,0.11
7.958,-0.11,0.00,0.08,0.14
7.968,-0.11,0.01,0.07,0.13
7.978,-0.12,-0.05,0.02,0.13
7.987,-0.11,-0.07,-0.05,0.14
7.998,-0.09,-0.04,-0.06,0.11
8.005,-0.12,-0.02,-0.00,0.12
8.015,-0.14,-0.01,0.01,0.14
8.025,-0.14,0.01,-0.03,0.14
8.035,-0.14,0.03,-0.11,0.18
8.045,-0.21,0.02,-0.09,0.23
8.055,-0.24,-0.04,0.00,0.25
8.065,-0.16,-0.01,0.06,0.17
8.075,-0.14,0.05,-0.00,0.14
8.085,-0.09,0.02,-0.07,0.12
8.095,-0.07,-0.03,-0.08,0.11
8.105,-0.12,-0.03,-0.07,0.14
8.115,-0.13,-0.03,0.02,0.13
8.125,-0.04,0.06,0.05,0.09
8.135,-0.01,0.14,0.02,0.14
8.145,-0.00,0.08,-0.04,0.09
8.155,0.01,-0.00,-0.07,0.07
8.165,-0.01,-0.03,-0.10,0.10
8.175,0.00,-0.02,-0.03,0.04
8.185,0.02,0.01,0.06,0.07
8.195,0.02,0.03,0.11,0.12
8.205,-0.01,0.06,0.12,0.13
8.215,-0.03,0.06,0.07,0.09
8.225,-0.03,0.05,-0.03,0.06
8.235,-0.02,0.04,-0.07,0.08
8.245,-0.02,0.03,-0.05,0.07
8.255,-0.08,0.02,0.01,0.08
8.265,-0.09,0.06,-0.01,0.10
8.276,-0.08,0.08,-0.09,0.14
8.285,-0.15,0.05,-0.04,0.17
8.295,-0.15,0.05,0.01,0.16
8.305,-0.14,0.05,0.07,0.16
8.315,-0.19,0.09,0.07,0.22
8.325,-0.19,0.10,-0.03,0.22
8.336,-0.22,0.03,-0.08,0.24
8.345,-0.25,-0.03,-0.10,0.27
8.355,-0.15,-0.02,-0.20,0.25
8.367,-0.00,-0.02,-0.39,0.39
8.377,0.16,-0.04,-0.53,0.56
8.387,0.28,-0.04,-0.69,0.74
8.397,0.34,-0.11,-0.53,0.64
8.407,0.28,-0.09,-0.32,0.43
8.417,0.16,-0.03,-0.09,0.19
8.427,-0.05,-0.02,0.12,0.14
8.437,-0.28,0.06,0.17,0.33
8.447,-0.39,0.06,0.16,0.43
8.457,-0.41,0.08,0.16,0.44
8.467,-0.45,0.13,0.15,0.49
8.477,-0.47,0.16,0.26,0.56
8.487,-0.47,0.21,0.31,0.60
8.497,-0.44,0.24,0.21,0.54
8.507,-0.38,0.18,0.18,0.46
8.517,-0.35,0.15,0.19,0.42
8.527,-0.32,0.11,0.24,0.41
8.537,-0.29,0.09,0.23,0.38
8.547,-0.24,0.08,0.29,0.38
8.557,-0.17,0.12,0.20,0.29
8.567,-0.08,0.12,0.05,0.16
8.577,-0.05,0.09,-0.06,0.12
8.587,-0.01,0.10,-0.12,0.15
8.597,0.02,0.11,-0.14,0.18
8.607,0.00,0.14,-0.13,0.19
8.617,-0.03,0.17,-0.05,0.17
8.627,-0.06,0.18,0.02,0.19
8.637,-0.06,0.15,0.05,0.17
8.647,-0.05,0.15,0.00,0.16
8.657,-0.10,0.16,-0.00,0.18
8.667,-0.15,0.11,0.02,0.19
8.677,-0.20,0.12,0.04,0.24
8.687,-0.24,0.14,0.03,0.28
8.697,-0.23,0.14,-0.05,0.27
8.707,-0.23,0.13,-0.09,0.28
8.717,-0.24,0.16,-0.06,0.30
8.727,-0.22,0.17,0.01,0.28
8.737,-0.17,0.13,-0.01,0.22
8.747,-0.16,0.08,-0.05,0.19
8.757,-0.16,0.04,-0.10,0.19
8.767,-0.13,0.01,-0.17,0.21
8.777,-0.17,-0.03,-0.15,0.22
8.787,-0.17,-0.03,-0.11,0.21
8.797,-0.16,-0.02,-0.03,0.17
8.807,-0.16,-0.01,0.01,0.17
8.817,-0.07,-0.02,0.05,0.09
8.827,-0.06,-0.00,0.06,0.09
8.837,-0.01,-0.01,0.06,0.06
8.847,0.01,-0.00,0.04,0.04
8.857,0.00,0.00,-0.06,0.06
8.867,-0.04,-0.01,-0.13,0.13
8.877,-0.04,-0.01,-0.09,0.10
8.887,-0.08,0.00,0.02,0.08
8.897,-0.18,0.06,0.06,0.20
8.907,-0.21,0.06,0.13,0.26
8.917,-0.16,0.03,0.15,0.22
8.927,-0.17,0.03,0.10,0.20
8.937,-0.14,0.04,0.05,0.15
8.947,-0.15,0.04,-0.01,0.16
8.957,-0.20,-0.00,-0.03,0.20
8.967,-0.20,-0.03,0.01,0.20
8.977,-0.18,-0.04,0.04,0.19
8.987,-0.12,-0.06,-0.05,0.14
8.997,-0.02,-0.09,-0.15,0.17
9.007,0.02,-0.14,-0.21,0.25
9.017,0.02,-0.17,-0.12,0.21
9.027,-0.04,-0.09,0.01,0.10
9.037,-0.11,0.00,0.07,0.13
9.047,-0.16,0.01,0.08,0.18
9.057,-0.17,-0.03,0.08,0.19
9.067,-0.15,-0.03,0.03,0.16
9.077,-0.15,-0.00,-0.03,0.15
9.087,-0.20,-0.04,-0.09,0.22
9.097,-0.14,-0.11,-0.19,0.27
9.107,-0.03,-0.11,-0.23,0.25
9.117,0.03,-0.04,-0.12,0.13
9.127,0.03,0.02,0.03,0.05
9.137,-0.02,0.04,0.09,0.10
9.147,-0.10,0.04,0.07,0.13
9.157,-0.13,-0.01,0.05,0.14
9.167,-0.15,-0.01,0.05,0.16
9.177,-0.16,-0.02,0.01,0.16
9.187,-0.14,-0.02,-0.01,0.14
9.197,-0.08,0.00,-0.04,0.09
9.207,-0.02,0.01,0.02,0.02
9.217,-0.06,0.03,0.13,0.14
9.227,-0.11,0.04,0.14,0.18
9.237,-0.09,0.02,-0.00,0.09
9.247,-0.09,-0.01,-0.04,0.10
9.257,-0.13,-0.01,-0.01,0.13
9.267,-0.17,-0.04,0.01,0.18
9.277,-0.19,-0.01,-0.03,0.20
9.287,-0.11,0.02,-0.17,0.21
9.297,-0.06,-0.01,-0.12,0.13
9.307,-0.08,-0.01,-0.00,0.08
9.317,-0.15,0.01,0.06,0.16
9.327,-0.20,-0.02,0.09,0.22
9.337,-0.22,-0.01,0.04,0.22
9.347,-0.23,-0.01,0.00,0.23
9.357,-0.25,-0.03,0.01,0.25
9.367,-0.25,-0.05,-0.12,0.28
9.377,-0.19,-0.06,-0.20,0.29
9.387,-0.20,-0.02,-0.14,0.25
9.397,-0.19,0.02,-0.05,0.19
9.407,-0.16,0.02,0.03,0.16
9.417,-0.17,0.04,-0.01,0.17
9.427,-0.17,0.05,-0.05,0.18
9.437,-0.18,0.02,-0.02,0.18
9.447,-0.18,0.00,0.06,0.19
9.457,-0.17,0.01,0.11,0.20
9.467,-0.16,0.03,0.08,0.18
9.477,-0.14,0.01,0.00,0.14
9.487,-0.10,0.02,-0.03,0.10
9.497,-0.01,0.02,-0.04,0.05
9.507,0.05,0.04,-0.07,0.09
9.517,-0.03,0.02,-0.07,0.08
9.527,-0.08,-0.01,-0.02,0.08
9.537,-0.09,-0.05,-0.06,0.12
9.547,-0.07,-0.02,0.00,0.07
9.557,-0.07,0.02,0.10,0.12
9.567,-0.06,0.04,0.11,0.14
9.577,-0.03,0.00,-0.00,0.03
9.587,-0.03,-0.05,-0.00,0.06
9.597,-0.05,-0.03,0.02,0.06
9.608,-0.01,-0.02,0.05,0.05
9.618,0.02,-0.01,0.01,0.03
9.627,0.05,-0.00,-0.06,0.08
9.637,0.08,-0.05,-0.06,0.11
9.647,0.10,-0.03,0.02,0.11
9.657,0.10,0.01,-0.01,0.10
9.668,0.06,0.03,-0.05,0.08
9.677,-0.02,0.01,-0.08,0.08
9.688,-0.06,-0.02,-0.09,0.11
9.698,-0.04,-0.00,-0.04,0.06
9.708,-0.04,0.02,-0.02,0.05
9.718,-0.08,0.06,-0.03,0.10
9.728,-0.09,0.03,-0.01,0.10
9.738,-0.08,0.04,-0.02,0.09
9.748,-0.12,0.06,-0.01,0.13
9.758,-0.21,0.07,0.01,0.22
9.768,-0.27,0.08,0.02,0.28
9.778,-0.34,0.07,0.04,0.35
9.788,-0.35,0.03,-0.03,0.35
9.798,-0.36,0.02,-0.01,0.36
9.808,-0.31,0.05,0.08,0.32
9.818,-0.26,0.07,0.09,0.28
9.828,-0.27,0.09,0.07,0.29
9.838,-0.26,0.08,0.01,0.27
9.848,-0.19,0.04,0.00,0.19
9.858,-0.15,0.02,0.02,0.15
9.868,-0.16,0.04,0.06,0.18
9.878,-0.18,0.05,0.06,0.19
9.888,-0.17,0.02,0.02,0.17
9.898,-0.11,0.01,-0.02,0.11
9.908,-0.02,0.01,-0.03,0.04
9.918,0.00,0.02,-0.03,0.04
9.928,0.03,0.02,-0.03,0.05
9.938,0.02,0.00,-0.04,0.05
9.948,-0.01,0.01,-0.03,0.03
9.958,-0.02,0.00,-0.04,0.05
9.968,-0.03,0.00,0.01,0.03
9.978,-0.01,-0.02,0.07,0.07
9.988,-0.01,0.04,0.11,0.11
9.998,-0.03,0.09,0.09,0.13
10.008,-0.04,0.06,0.06,0.10
10.018,-0.07,0.02,0.09,0.12
10.028,-0.09,-0.01,0.15,0.18
10.038,-0.11,0.04,0.14,0.19
10.048,-0.12,0.00,0.14,0.18
10.058,-0.10,-0.02,0.08,0.13
10.068,-0.07,-0.05,0.01,0.09
10.078,-0.05,-0.03,-0.03,0.07
10.088,-0.06,-0.05,0.01,0.08
10.098,-0.11,-0.06,0.08,0.15
10.108,-0.11,-0.03,0.11,0.16
10.118,-0.12,-0.00,0.13,0.18
10.128,-0.10,0.03,0.10,0.14
10.138,-0.10,0.01,0.03,0.10
10.148,-0.08,-0.01,-0.00,0.08
10.158,-0.04,0.01,-0.00,0.04
10.170,0.03,0.05,-0.09,0.11
10.178,-0.01,0.03,-0.14,0.14
10.188,-0.01,0.02,-0.15,0.15
10.198,0.02,0.03,-0.08,0.09
10.208,-0.12,0.02,0.05,0.13
10.218,-0.20,0.04,0.13,0.24
10.228,-0.24,0.07,0.10,0.27
10.238,-0.25,0.09,0.09,0.28
10.248,-0.24,0.09,0.06,0.26
10.258,-0.27,0.08,0.01,0.28
10.268,-0.26,0.08,-0.03,0.27
10.278,-0.16,0.08,-0.13,0.23
10.288,-0.12,0.04,-0.13,0.18
10.298,-0.07,0.06,-0.06,0.11
10.308,-0.09,0.09,-0.06,0.14
10.318,-0.17,0.09,-0.07,0.20
10.328,-0.17,0.03,-0.04,0.18
10.338,-0.21,0.04,-0.03,0.21
10.348,-0.23,0.06,-0.03,0.24
10.358,-0.22,0.02,-0.06,0.23
10.368,-0.20,-0.01,-0.06,0.21
10.378,-0.20,-0.02,-0.02,0.21
10.388,-0.21,-0.06,0.04,0.22
10.398,-0.18,-0.09,0.01,0.20
10.408,-0.15,-0.10,-0.06,0.19
10.418,-0.11,-0.09,-0.18,0.23
10.428,-0.06,-0.09,-0.27,0.29
10.438,-0.04,-0.12,-0.18,0.22
10.448,-0.07,-0.10,-0.10,0.16
10.458,-0.10,-0.06,-0.08,0.14
10.468,-0.12,-0.04,-0.07,0.15
10.478,-0.17,-0.05,-0.11,0.21
10.488,-0.19,-0.03,-0.13,0.23
10.498,-0.19,0.03,-0.12,0.23
10.508,-0.15,0.05,-0.10,0.19
10.518,-0.16,0.06,-0.11,0.20
10.528,-0.18,0.07,-0.12,0.22
10.538,-0.21,0.08,-0.06,0.23
10.548,-0.27,0.06,0.01,0.28
10.558,-0.26,0.07,0.08,0.28
10.568,-0.28,0.07,0.06,0.29
10.578,-0.23,0.08,0.06,0.25
10.588,-0.22,0.06,0.10,0.25
10.598,-0.20,0.05,0.13,0.25
10.608,-0.11,0.06,0.08,0.15
10.618,-0.05,0.08,0.05,0.11
10.628,-0.04,0.13,0.04,0.14
10.638,-0.08,0.16,0.09,0.20
10.648,-0.12,0.15,0.14,0.24
10.658,-0.19,0.18,0.17,0.32
10.668,-0.22,0.21,0.15,0.34
10.678,-0.19,0.20,0.16,0.32
10.688,-0.14,0.17,0.19,0.29
10.698,-0.02,0.17,0.16,0.23
10.708,0.07,0.16,0.13,0.22
10.718,0.11,0.14,0.05,0.19
10.728,0.09,0.09,0.05,0.14
10.738,0.06,0.03,0.08,0.10
10.748,-0.03,-0.03,0.13,0.13
10.758,-0.13,-0.06,0.17,0.22
10.768,-0.18,-0.09,0.18,0.27
10.778,-0.07,-0.10,0.19,0.22
10.788,0.06,-0.11,0.09,0.16
10.798,0.18,-0.14,-0.06,0.24
10.808,0.24,-0.21,-0.16,0.36
10.818,0.27,-0.21,-0.21,0.40
10.828,0.24,-0.18,-0.25,0.39
10.838,0.14,-0.17,-0.24,0.32
10.848,-0.00,-0.18,-0.13,0.22
10.858,-0.12,-0.20,-0.01,0.23
10.868,-0.25,-0.18,0.07,0.32
10.878,-0.38,-0.14,0.10,0.42
10.888,-0.45,-0.13,0.11,0.48
10.898,-0.47,-0.14,0.11,0.50
10.908,-0.40,-0.11,0.03,0.42
10.918,-0.29,-0.09,-0.15,0.34
10.928,-0.18,-0.10,-0.22,0.31
10.938,-0.07,-0.10,-0.17,0.21
10.948,-0.05,-0.08,-0.05,0.11
10.958,-0.04,-0.06,-0.02,0.08
10.968,-0.09,-0.04,-0.05,0.11
10.978,-0.16,0.03,-0.07,0.18
10.988,-0.19,0.05,-0.02,0.20
10.999,-0.19,0.10,0.03,0.22
11.009,-0.19,0.14,0.05,0.24
11.018,-0.19,0.16,0.01,0.25
11.028,-0.15,0.16,-0.06,0.23
11.039,0.01,0.12,-0.19,0.22
11.049,0.09,0.07,-0.25,0.28
11.058,0.04,0.08,-0.14,0.16
11.068,-0.05,0.09,0.01,0.10
11.079,-0.17,0.10,0.11,0.23
11.088,-0.22,0.12,0.10,0.27
11.098,-0.20,0.11,0.01,0.23
11.108,-0.16,0.08,-0.06,0.19
11.118,-0.20,0.01,-0.04,0.20
11.128,-0.20,-0.02,0.04,0.20
11.138,-0.17,-0.03,0.13,0.21
11.148,-0.15,-0.03,0.16,0.22
11.159,-0.14,-0.06,0.16,0.22
11.169,-0.13,-0.11,0.15,0.22
11.178,-0.17,-0.15,0.16,0.28
11.189,-0.17,-0.13,0.14,0.25
11.199,-0.14,-0.08,0.18,0.24
11.209,-0.14,-0.05,0.14,0.21
11.218,-0.18,-0.06,0.10,0.21
11.229,-0.25,-0.07,0.17,0.31
11.239,-0.25,-0.02,0.19,0.32
11.249,-0.23,0.00,0.19,0.30
11.259,-0.19,-0.02,0.10,0.22
11.269,-0.10,-0.02,-0.04,0.11
11.279,-0.09,-0.02,-0.08,0.12
11.289,-0.08,-0.01,-0.01,0.08
11.299,-0.12,0.01,0.06,0.14
11.309,-0.11,0.05,0.01,0.12
11.319,-0.05,0.04,-0.14,0.15
11.329,-0.02,0.01,-0.22,0.22
11.339,-0.00,-0.00,-0.26,0.26
11.349,-0.01,-0.02,-0.19,0.20
11.359,-0.05,-0.00,-0.18,0.18
11.369,-0.01,0.02,-0.20,0.20
11.379,0.02,0.04,-0.30,0.30
11.389,-0.00,0.05,-0.31,0.32
11.399,-0.00,0.04,-0.29,0.30
11.409,-0.05,0.05,-0.27,0.28
11.419,-0.21,0.08,-0.23,0.32
11.429,-0.35,0.06,-0.16,0.39
11.439,-0.38,0.09,-0.09,0.41
11.449,-0.32,0.10,-0.07,0.34
11.459,-0.22,0.03,-0.05,0.22
11.469,-0.08,0.00,0.01,0.08
11.479,0.07,0.02,0.12,0.14
11.489,0.19,0.05,0.11,0.23
11.499,0.22,0.08,0.04,0.23
11.509,0.21,0.04,0.01,0.21
11.519,0.13,-0.01,0.08,0.15
11.529,0.07,-0.05,0.18,0.20
11.539,0.03,-0.09,0.28,0.29
11.549,0.01,-0.11,0.25,0.27
11.559,0.05,-0.15,0.07,0.17
11.569,0.08,-0.23,-0.05,0.25
11.579,0.15,-0.28,-0.10,0.33
11.589,0.13,-0.29,-0.04,0.32
11.599,0.01,-0.25,0.03,0.25
11.609,-0.12,-0.20,0.05,0.24
11.619,-0.21,-0.17,0.06,0.28
11.629,-0.29,-0.15,0.00,0.33
11.639,-0.34,-0.14,-0.04,0.37
11.649,-0.36,-0.10,-0.04,0.38
11.659,-0.33,-0.03,-0.06,0.33
11.669,-0.27,0.02,0.03,0.28
11.679,-0.24,0.09,0.07,0.27
11.689,-0.21,0.18,-0.01,0.28
11.699,-0.19,0.22,-0.12,0.31
11.709,-0.20,0.20,-0.15,0.31
11.719,-0.14,0.23,-0.15,0.31
11.729,-0.08,0.29,-0.18,0.35
11.739,-0.05,0.33,-0.23,0.40
11.749,-0.10,0.33,-0.26,0.43
11.759,-0.14,0.32,-0.27,0.44
11.769,-0.17,0.34,-0.32,0.50
11.779,-0.18,0.35,-0.35,0.53
11.789,-0.17,0.38,-0.34,0.54
11.799,-0.18,0.39,-0.28,0.51
11.809,-0.19,0.39,-0.16,0.46
11.819,-0.19,0.39,-0.04,0.43
11.829,-0.12,0.37,0.05,0.39
11.839,-0.02,0.31,0.10,0.32
11.849,0.07,0.20,0.15,0.26
11.859,0.11,0.13,0.11,0.20
11.869,0.13,0.05,-0.09,0.16
11.879,0.13,-0.07,-0.19,0.24
11.889,0.15,-0.12,-0.38,0.43
11.899,0.06,-0.13,-0.42,0.44
11.909,-0.04,-0.15,-0.26,0.31
11.919,-0.12,-0.14,-0.02,0.18
11.929,-0.15,-0.10,0.14,0.23
11.939,-0.20,-0.10,0.19,0.30
11.949,-0.29,-0.14,0.17,0.36
11.959,-0.30,-0.21,0.05,0.37
11.969,-0.29,-0.24,-0.02,0.38
11.979,-0.30,-0.23,-0.10,0.39
11.989,-0.35,-0.19,-0.16,0.43
11.999,-0.44,-0.16,-0.13,0.49
12.008,-0.51,-0.12,0.01,0.52
12.018,-0.50,-0.05,0.07,0.51
12.028,-0.47,0.02,0.13,0.49
12.038,-0.43,0.06,0.09,0.45
12.048,-0.42,0.05,0.08,0.43
12.058,-0.40,0.04,0.06,0.40
12.068,-0.36,0.05,0.03,0.37
12.078,-0.31,0.07,-0.02,0.32
12.088,-0.27,0.07,-0.02,0.28
12.098,-0.27,0.06,0.06,0.28
12.108,-0.25,0.03,0.19,0.31
12.118,-0.27,0.04,0.29,0.40
12.128,-0.24,0.02,0.33,0.41
12.138,-0.18,-0.02,0.33,0.37
12.148,-0.11,-0.03,0.30,0.32
12.158,-0.04,-0.02,0.25,0.25
12.168,0.02,-0.06,0.23,0.24
12.178,0.06,-0.09,0.22,0.24
12.188,0.08,-0.07,0.26,0.28
12.198,0.13,-0.04,0.29,0.32
12.208,0.20,-0.05,0.31,0.37
12.218,0.24,-0.07,0.28,0.38
12.228,0.25,-0.06,0.16,0.31
12.238,0.20,-0.09,0.02,0.22
12.248,0.18,-0.10,-0.09,0.23
12.258,0.15,-0.08,-0.21,0.27
12.268,0.08,-0.07,-0.24,0.27
12.278,-0.05,-0.09,-0.19,0.21
12.288,-0.11,-0.09,-0.13,0.19
12.298,-0.17,-0.05,-0.10,0.20
12.308,-0.24,-0.05,-0.08,0.26
12.318,-0.32,-0.03,-0.02,0.33
12.328,-0.35,-0.06,0.06,0.36
12.338,-0.33,-0.07,0.04,0.34
12.348,-0.32,-0.09,-0.05,0.33
12.358,-0.31,-0.10,-0.10,0.34
12.371,-0.33,-0.14,-0.13,0.38
12.381,-0.32,-0.15,-0.11,0.37
12.391,-0.27,-0.15,-0.01,0.31
12.401,-0.22,-0.11,0.01,0.24
12.411,-0.21,-0.07,0.05,0.23
12.421,-0.24,-0.05,0.09,0.26
12.431,-0.21,-0.03,0.09,0.23
12.441,-0.16,-0.01,0.08,0.18
12.451,-0.09,0.03,0.02,0.09
12.461,-0.01,0.06,-0.01,0.07
12.471,0.04,0.07,-0.07,0.10
12.481,0.05,0.04,-0.02,0.07
12.491,0.10,0.07,0.00,0.12
12.501,0.07,0.12,0.04,0.15
12.511,-0.02,0.16,0.10,0.19
12.521,-0.11,0.16,0.17,0.26
12.531,-0.15,0.12,0.17,0.26
12.541,-0.18,0.15,0.12,0.26
12.551,-0.22,0.17,0.10,0.29
12.561,-0.25,0.18,0.06,0.31
12.571,-0.21,0.17,0.02,0.27
12.581,-0.22,0.11,0.00,0.25
12.591,-0.15,0.13,-0.08,0.22
12.601,-0.13,0.17,-0.14,0.25
12.611,-0.14,0.15,-0.08,0.22
12.621,-0.16,0.09,-0.01,0.18
12.631,-0.24,0.08,0.02,0.25
12.641,-0.29,0.10,0.07,0.32
12.651,-0.22,0.14,0.14,0.30
12.661,-0.16,0.21,0.15,0.30
12.671,-0.11,0.23,0.08,0.27
12.681,-0.06,0.19,0.01,0.20
12.691,0.01,0.16,-0.06,0.17
12.701,0.05,0.12,-0.12,0.18
12.711,0.06,0.11,-0.10,0.16
12.721,0.13,0.11,-0.12,0.21
12.731,0.16,0.12,-0.09,0.22
12.741,0.12,0.07,-0.08,0.16
12.751,0.13,-0.00,-0.06,0.15
12.761,0.17,-0.07,-0.00,0.18
12.771,0.17,-0.11,0.01,0.20
12.781,0.13,-0.13,-0.01,0.19
12.791,0.05,-0.17,-0.03,0.18
12.801,-0.01,-0.21,-0.03,0.21
12.811,-0.07,-0.22,-0.00,0.23
12.821,-0.13,-0.21,0.03,0.25
12.831,-0.16,-0.17,0.06,0.24
12.841,-0.15,-0.18,0.05,0.24
12.851,-0.12,-0.20,-0.02,0.23
12.861,-0.10,-0.23,-0.02,0.25
12.871,-0.09,-0.23,0.03,0.25
12.881,-0.10,-0.21,0.09,0.25
12.891,-0.11,-0.20,0.08,0.24
12.901,-0.17,-0.22,0.09,0.30
12.911,-0.21,-0.21,0.10,0.32
12.921,-0.22,-0.17,0.13,0.31
12.931,-0.26,-0.08,0.16,0.32
12.941,-0.26,-0.01,0.15,0.30
12.951,-0.26,0.03,0.11,0.28
12.961,-0.27,0.09,0.13,0.31
12.971,-0.26,0.18,0.15,0.35
12.981,-0.24,0.21,0.14,0.35
12.991,-0.25,0.20,0.09,0.33
13.001,-0.22,0.18,-0.00,0.28
13.011,-0.18,0.13,-0.04,0.23
13.021,-0.16,0.08,-0.05,0.18
13.031,-0.17,0.06,-0.04,0.19
13.041,-0.18,0.05,-0.07,0.20
13.051,-0.15,0.03,-0.09,0.18
13.061,-0.16,0.03,-0.11,0.19
13.071,-0.11,0.03,-0.16,0.20
13.081,-0.11,-0.02,-0.19,0.22
13.091,-0.13,-0.06,-0.21,0.26
13.101,-0.13,-0.07,-0.21,0.26
13.111,-0.11,-0.06,-0.23,0.26
13.121,-0.10,-0.04,-0.27,0.29
13.131,-0.09,-0.08,-0.26,0.28
13.141,-0.12,-0.09,-0.18,0.23
13.151,-0.14,-0.07,-0.14,0.21
13.161,-0.10,-0.03,-0.11,0.15
13.171,-0.08,-0.00,-0.15,0.17
13.181,-0.05,0.00,-0.16,0.17
13.191,-0.06,-0.01,-0.08,0.10
13.201,-0.08,0.01,0.01,0.08
13.211,-0.08,0.04,0.07,0.11
13.221,-0.10,0.03,0.08,0.13
13.231,-0.05,0.02,0.04,0.07
13.241,-0.04,0.00,0.02,0.04
13.251,-0.02,0.03,-0.03,0.04
13.261,-0.02,0.02,-0.03,0.04
13.271,-0.02,0.03,-0.04,0.05
13.281,-0.07,0.01,0.02,0.08
13.291,-0.15,-0.02,0.06,0.17
13.301,-0.21,-0.06,0.05,0.22
13.311,-0.20,-0.10,0.02,0.23
13.321,-0.17,-0.12,0.03,0.21
13.331,-0.13,-0.12,0.05,0.18
13.341,-0.12,-0.10,0.03,0.16
13.351,-0.13,-0.08,0.00,0.15
13.361,-0.14,-0.07,-0.02,0.16
13.371,-0.13,-0.04,-0.06,0.15
13.381,-0.10,-0.05,-0.09,0.15
13.391,-0.12,-0.05,-0.04,0.14
13.401,-0.08,-0.06,-0.03,0.10
13.411,-0.02,-0.07,-0.06,0.09
13.421,-0.01,-0.07,-0.13,0.15
13.431,-0.05,-0.07,-0.08,0.12
13.441,-0.04,-0.06,-0.00,0.08
13.451,-0.03,0.03,-0.00,0.04
13.461,0.03,0.04,-0.02,0.05
13.471,0.05,0.04,-0.03,0.07
13.481,-0.02,0.05,0.05,0.07
13.491,-0.05,-0.04,0.09,0.10
13.501,-0.00,-0.06,0.05,0.07
13.511,0.02,-0.08,0.07,0.11
13.521,0.00,-0.12,0.08,0.14
13.531,-0.08,-0.10,0.05,0.14
13.541,-0.14,-0.09,-0.01,0.16
13.551,-0.17,-0.08,-0.09,0.21
13.561,-0.19,-0.10,-0.12,0.25
13.571,-0.26,-0.07,-0.04,0.27
13.581,-0.30,-0.02,0.01,0.30
13.591,-0.28,0.01,0.08,0.29
13.601,-0.35,0.04,0.15,0.38
13.611,-0.33,0.04,0.21,0.39
13.622,-0.31,0.05,0.30,0.44
13.631,-0.29,0.12,0.31,0.44
13.641,-0.26,0.09,0.28,0.39
13.651,-0.22,0.05,0.17,0.28
13.661,-0.12,0.00,0.04,0.12
13.672,-0.02,-0.03,-0.09,0.10
13.681,0.01,-0.05,-0.10,0.11
13.691,0.02,-0.01,0.03,0.04
13.701,0.03,0.06,0.14,0.16
13.711,0.02,0.11,0.18,0.21
13.721,0.06,0.05,0.08,0.11
13.732,0.07,-0.02,-0.07,0.10
13.741,0.03,-0.01,-0.10,0.11
13.752,-0.03,-0.02,-0.07,0.08
13.762,-0.08,-0.03,-0.07,0.11
13.771,-0.08,-0.05,-0.09,0.13
13.782,-0.11,-0.08,-0.08,0.16
13.791,-0.13,-0.05,-0.12,0.18
13.802,-0.12,-0.04,-0.10,0.16
13.812,-0.18,-0.01,-0.01,0.18
13.822,-0.21,0.05,0.06,0.23
13.832,-0.26,0.10,0.04,0.29
13.841,-0.35,0.10,-0.04,0.36
13.852,-0.40,0.10,-0.11,0.42
13.862,-0.36,0.10,-0.17,0.41
13.871,-0.31,0.05,-0.14,0.34
13.881,-0.22,0.02,-0.11,0.25
13.892,-0.17,0.02,-0.03,0.17
13.902,-0.12,0.02,0.01,0.12
13.912,-0.09,-0.00,-0.05,0.10
13.922,-0.09,-0.07,-0.06,0.12
13.932,-0.10,-0.09,-0.04,0.14
13.942,-0.10,-0.09,-0.05,0.14
13.952,-0.06,-0.06,-0.03,0.09
13.962,0.02,-0.06,-0.04,0.08
13.972,0.04,-0.03,-0.01,0.05
13.982,0.02,-0.02,0.03,0.04
13.992,-0.00,0.02,0.03,0.04
14.002,-0.01,0.03,0.08,0.09
14.012,-0.02,0.06,0.13,0.15
14.022,0.03,0.07,0.10,0.13
14.031,0.08,0.06,0.08,0.13
14.042,0.08,0.04,0.12,0.15
14.052,0.03,0.05,0.20,0.21
14.062,-0.01,0.04,0.20,0.20
14.072,-0.07,0.03,0.16,0.18
14.082,-0.11,0.04,0.04,0.12
14.092,-0.14,0.03,0.01,0.14
14.102,-0.14,0.03,0.05,0.15
14.112,-0.11,0.04,0.06,0.13
14.122,-0.13,0.06,0.03,0.15
14.132,-0.14,0.05,0.00,0.15
14.142,-0.17,0.04,0.05,0.18
14.152,-0.23,0.07,0.04,0.24
14.162,-0.29,0.06,-0.00,0.30
14.172,-0.33,0.04,-0.06,0.34
14.182,-0.35,0.03,-0.04,0.35
14.192,-0.34,0.04,0.01,0.35
14.202,-0.43,0.04,0.00,0.43
14.212,-0.41,0.02,0.01,0.41
14.222,-0.29,0.01,0.01,0.29
14.232,-0.15,0.03,-0.12,0.20
14.242,-0.12,0.04,-0.22,0.26
14.252,-0.06,-0.02,-0.20,0.21
14.262,-0.05,-0.02,-0.07,0.09
14.272,-0.10,0.01,0.07,0.12
14.282,-0.17,0.07,0.17,0.25
14.292,-0.22,0.05,0.20,0.30
14.302,-0.16,0.05,0.18,0.24
14.312,-0.09,0.05,0.15,0.18
14.322,-0.10,0.04,0.09,0.13
14.332,-0.13,0.01,-0.04,0.13
14.342,-0.06,-0.05,-0.07,0.10
14.352,0.00,-0.07,-0.03,0.07
14.362,0.03,-0.05,-0.02,0.06
14.372,0.03,0.01,-0.02,0.04
14.382,0.02,-0.01,-0.04,0.04
14.392,-0.00,-0.04,-0.08,0.09
14.402,-0.04,-0.02,-0.14,0.15
14.412,-0.08,-0.01,-0.09,0.12
14.422,-0.12,0.01,-0.05,0.13
14.432,-0.14,0.03,-0.01,0.14
14.442,-0.16,0.01,0.00,0.16
14.452,-0.17,0.04,0.01,0.18
14.462,-0.14,0.06,0.02,0.15
14.472,-0.19,0.05,-0.00,0.19
14.482,-0.20,0.04,0.00,0.20
14.492,-0.15,0.05,0.02,0.16
14.502,-0.16,0.05,0.02,0.17
14.512,-0.15,0.06,0.00,0.16
14.522,-0.14,0.04,-0.02,0.14
14.532,-0.14,0.04,-0.03,0.15
14.542,-0.10,0.03,-0.04,0.11
14.552,-0.07,0.04,-0.01,0.08
14.562,-0.09,0.04,-0.05,0.11
14.572,-0.12,0.02,-0.04,0.13
14.582,-0.18,0.02,-0.00,0.18
14.592,-0.20,0.02,-0.01,0.20
14.602,-0.14,-0.01,-0.01,0.14
14.612,-0.09,-0.02,-0.01,0.09
14.622,-0.00,0.04,-0.08,0.09
14.632,0.02,0.03,-0.12,0.12
14.642,-0.02,-0.00,-0.03,0.04
14.652,-0.07,0.02,0.09,0.12
14.662,-0.11,0.06,0.16,0.20
14.672,-0.14,0.07,0.18,0.24
14.682,-0.14,0.09,0.15,0.22
14.692,-0.03,0.09,0.04,0.10
14.702,0.01,0.05,0.03,0.06
14.712,0.01,-0.01,0.06,0.06
14.722,0.05,-0.04,0.07,0.09
14.732,0.03,-0.06,0.02,0.07
14.742,-0.03,-0.10,0.02,0.10
14.752,-0.05,-0.12,0.05,0.14
14.762,-0.05,-0.11,0.12,0.17
14.772,-0.05,-0.09,0.13,0.17
14.782,-0.06,-0.05,0.07,0.10
14.792,-0.03,-0.06,-0.01,0.07
14.802,-0.02,-0.06,-0.07,0.10
14.812,0.02,-0.06,-0.17,0.18
14.822,-0.01,-0.06,-0.18,0.18
14.832,-0.09,-0.05,-0.07,0.13
14.842,-0.10,-0.02,0.04,0.11
14.852,-0.16,-0.01,0.11,0.20
14.862,-0.21,0.02,0.06,0.22
14.872,-0.20,0.01,-0.02,0.20
14.882,-0.16,-0.01,-0.02,0.16
14.892,-0.16,-0.01,0.04,0.17
14.902,-0.15,-0.02,0.07,0.17
14.912,-0.14,0.01,0.04,0.14
14.922,-0.13,-0.01,-0.03,0.14
14.932,-0.10,-0.05,-0.10,0.15
14.942,-0.15,-0.07,-0.06,0.18
14.952,-0.15,-0.06,-0.06,0.18
14.962,-0.14,-0.03,-0.06,0.16
14.972,-0.15,-0.01,-0.14,0.21
14.982,-0.17,-0.04,-0.17,0.24
14.992,-0.22,-0.04,-0.14,0.26
15.002,-0.23,-0.02,-0.13,0.26
15.012,-0.26,-0.01,-0.06,0.26
15.022,-0.25,-0.01,-0.01,0.25
15.032,-0.22,0.04,-0.03,0.22
15.042,-0.22,0.02,-0.07,0.23
15.052,-0.18,0.00,-0.05,0.19
15.062,-0.15,-0.01,-0.09,0.18
15.072,-0.10,0.01,-0.14,0.17
15.082,-0.06,0.02,-0.15,0.16
15.092,-0.07,0.06,-0.11,0.14
15.102,-0.10,0.07,-0.07,0.14
15.112,-0.17,0.09,-0.03,0.20
15.122,-0.17,0.09,-0.04,0.20
15.132,-0.20,0.08,-0.03,0.22
15.143,-0.20,0.09,-0.01,0.22
15.152,-0.17,0.11,0.03,0.20
15.162,-0.17,0.12,0.06,0.22
15.173,-0.23,0.10,0.05,0.26
15.183,-0.25,0.08,0.04,0.26
15.192,-0.24,0.06,0.05,0.26
15.202,-0.20,0.06,0.09,0.23
15.213,-0.14,0.07,0.06,0.17
15.223,-0.08,0.05,-0.05,0.10
15.232,-0.01,-0.03,-0.07,0.08
15.242,0.03,-0.07,0.02,0.08
15.252,0.03,-0.02,0.08,0.09
15.262,-0.06,-0.01,0.09,0.11
15.273,-0.13,-0.04,0.10,0.17
15.282,-0.18,-0.06,0.10,0.21
15.293,-0.19,-0.06,0.09,0.22
15.302,-0.18,-0.06,0.04,0.19
15.313,-0.13,-0.06,0.03,0.15
15.323,-0.08,-0.05,-0.00,0.09
15.333,-0.06,-0.09,-0.06,0.12
15.342,-0.05,-0.11,-0.06,0.14
15.353,-0.03,-0.10,-0.06,0.12
15.363,-0.05,-0.11,-0.01,0.12
15.373,-0.04,-0.11,-0.00,0.12
15.383,-0.04,-0.08,-0.04,0.10
15.393,-0.08,-0.08,-0.07,0.13
15.403,-0.11,-0.09,-0.06,0.16
15.413,-0.14,-0.07,-0.04,0.16
15.423,-0.18,-0.09,0.04,0.20
15.433,-0.16,-0.07,0.10,0.20
15.443,-0.14,-0.05,0.04,0.15
15.453,-0.09,-0.06,-0.07,0.13
15.463,-0.13,-0.09,-0.09,0.18
15.473,-0.21,-0.13,0.02,0.25
15.483,-0.28,-0.12,0.12,0.33
15.493,-0.34,-0.11,0.16,0.39
15.503,-0.38,-0.18,0.11,0.43
15.513,-0.28,-0.27,0.03,0.39
15.523,-0.16,-0.31,-0.02,0.35
15.533,-0.10,-0.29,-0.01,0.31
15.543,-0.06,-0.25,0.00,0.25
15.553,-0.04,-0.22,-0.04,0.23
15.563,-0.01,-0.21,-0.06,0.22
15.573,0.02,-0.18,-0.07,0.19
15.583,-0.09,-0.13,-0.08,0.18
15.593,-0.13,-0.05,0.08,0.16
15.603,-0.13,0.06,0.06,0.16
15.613,-0.16,0.08,0.01,0.18
15.623,-0.11,0.07,0.04,0.14
15.633,-0.12,0.14,0.05,0.19
15.643,-0.11,0.20,0.05,0.23
15.653,-0.11,0.19,0.04,0.23
15.663,-0.13,0.17,0.04,0.21
15.673,-0.07,0.17,-0.01,0.19
15.683,0.01,0.22,-0.05,0.22
15.693,0.06,0.23,-0.03,0.24
15.703,0.04,0.24,0.05,0.25
15.713,0.04,0.26,0.10,0.28
15.723,-0.00,0.28,0.13,0.31
15.733,-0.03,0.30,0.15,0.34
15.743,0.02,0.28,0.16,0.32
15.753,0.03,0.26,0.11,0.28
15.763,-0.04,0.20,0.16,0.26
15.773,-0.04,0.17,0.12,0.21
15.783,-0.06,0.10,0.00,0.12
15.793,-0.05,0.06,-0.06,0.10
15.803,-0.06,0.02,-0.12,0.14
15.813,-0.13,-0.05,-0.05,0.15
15.823,-0.14,-0.05,-0.01,0.15
15.833,-0.11,0.01,-0.08,0.14
15.843,-0.16,-0.01,-0.05,0.17
15.853,-0.25,-0.05,-0.02,0.26
15.863,-0.31,-0.05,0.00,0.31
15.873,-0.31,-0.01,-0.00,0.31
15.883,-0.36,-0.01,-0.05,0.36
15.893,-0.32,-0.07,-0.14,0.36
15.903,-0.25,-0.13,-0.13,0.31
15.913,-0.22,-0.13,-0.11,0.27
15.923,-0.17,-0.12,-0.07,0.21
15.933,-0.16,-0.09,-0.05,0.19
15.943,-0.19,-0.11,-0.08,0.24
15.953,-0.22,-0.16,-0.05,0.28
15.963,-0.20,-0.14,-0.06,0.26
15.973,-0.19,-0.14,-0.10,0.26
15.983,-0.17,-0.14,-0.13,0.26
15.993,-0.13,-0.14,-0.17,0.25
16.000,-0.13,-0.16,-0.16,0.26
16.010,-0.12,-0.18,-0.12,0.25
16.020,-0.08,-0.17,-0.11,0.22
16.030,-0.07,-0.14,-0.16,0.23
16.040,-0.08,-0.15,-0.14,0.22
16.050,-0.10,-0.12,-0.09,0.18
16.060,-0.07,-0.05,-0.07,0.11
16.071,-0.10,-0.02,-0.09,0.14
16.081,-0.15,-0.02,-0.08,0.17
16.091,-0.15,0.01,-0.09,0.18
16.100,-0.14,0.02,-0.08,0.16
16.111,-0.09,0.01,-0.10,0.13
16.120,-0.05,0.05,-0.10,0.12
16.131,-0.00,0.05,-0.10,0.11
16.141,0.00,0.07,-0.11,0.13
16.150,-0.06,0.06,-0.08,0.12
16.161,-0.07,0.07,-0.06,0.12
16.171,-0.11,0.06,0.04,0.13
16.181,-0.17,0.06,0.12,0.22
16.191,-0.18,0.07,0.14,0.24
16.201,-0.10,0.08,0.16,0.21
16.211,-0.03,0.09,0.15,0.17
16.221,-0.02,0.08,0.15,0.17
16.231,-0.02,0.07,0.10,0.13
16.241,-0.07,0.04,0.06,0.10
16.251,-0.10,0.02,0.04,0.11
16.260,-0.10,0.02,0.07,0.13
16.271,-0.10,0.02,0.11,0.15
16.281,-0.08,-0.01,0.12,0.15
16.291,-0.01,-0.00,0.08,0.09
16.301,0.02,-0.00,0.07,0.08
16.311,-0.01,-0.01,0.08,0.08
16.321,-0.03,-0.01,0.05,0.06
16.331,-0.04,-0.01,0.04,0.06
16.341,-0.05,-0.02,0.05,0.08
16.351,-0.08,0.01,0.09,0.12
16.361,-0.10,0.03,0.11,0.15
16.373,-0.08,0.00,0.03,0.08
16.383,-0.03,-0.01,-0.06,0.07
16.393,-0.03,-0.01,-0.08,0.09
16.403,-0.10,0.00,0.04,0.11
16.413,-0.19,0.04,0.08,0.21
16.423,-0.20,0.02,0.08,0.22
16.433,-0.23,0.03,0.06,0.24
16.443,-0.18,0.04,-0.04,0.19
16.453,-0.18,0.02,-0.10,0.21
16.463,-0.17,0.03,-0.06,0.18
16.473,-0.18,0.02,-0.03,0.19
16.483,-0.23,0.00,-0.02,0.23
16.493,-0.15,0.04,-0.01,0.15
16.503,-0.10,0.09,-0.02,0.14
16.513,-0.13,0.12,-0.09,0.20
16.523,-0.14,0.12,-0.15,0.24
16.533,-0.19,0.05,-0.03,0.20
16.543,-0.22,0.04,0.07,0.24
16.553,-0.22,0.08,0.12,0.26
16.563,-0.20,0.10,0.07,0.24
16.574,-0.17,0.12,0.03,0.21
16.584,-0.14,0.08,0.01,0.16
16.593,-0.11,0.05,0.02,0.13
16.603,-0.09,0.05,0.07,0.12
16.613,-0.08,0.11,0.10,0.17
16.623,-0.02,0.16,0.06,0.17
16.633,-0.05,0.15,0.00,0.16
16.643,-0.11,0.09,-0.12,0.19
16.653,-0.11,0.04,-0.28,0.30
16.663,-0.09,0.01,-0.44,0.45
16.674,-0.07,-0.00,-0.49,0.49
16.683,-0.11,0.03,-0.41,0.43
16.693,-0.19,0.05,-0.27,0.34
16.703,-0.25,0.10,-0.12,0.30
16.713,-0.33,0.15,-0.02,0.36
16.723,-0.35,0.15,0.02,0.38
16.733,-0.30,0.09,0.05,0.32
16.743,-0.23,0.08,0.06,0.25
16.753,-0.13,0.14,0.07,0.20
16.763,-0.03,0.17,0.20,0.26
16.773,0.00,0.21,0.28,0.35
16.783,0.01,0.28,0.34,0.44
16.793,0.01,0.27,0.41,0.49
16.803,0.03,0.25,0.47,0.54
16.813,0.03,0.25,0.44,0.51
16.824,0.02,0.23,0.36,0.42
16.834,0.05,0.20,0.27,0.34
16.843,0.06,0.19,0.19,0.28
16.853,0.03,0.17,0.20,0.26
16.864,-0.01,0.16,0.22,0.27
16.873,0.01,0.15,0.19,0.25
16.884,0.03,0.13,0.17,0.22
16.893,0.00,0.10,0.15,0.18
16.904,-0.05,0.05,0.15,0.16
16.914,-0.07,0.00,0.10,0.12
16.924,-0.07,-0.03,0.05,0.10
16.934,-0.08,-0.05,0.02,0.10
16.944,-0.11,-0.11,-0.02,0.15
16.953,-0.11,-0.14,-0.01,0.18
16.964,-0.09,-0.14,-0.04,0.17
16.974,-0.03,-0.13,-0.09,0.16
16.984,-0.02,-0.12,-0.12,0.17
16.994,-0.00,-0.12,-0.14,0.18
17.004,-0.05,-0.14,-0.09,0.17
17.014,-0.12,-0.14,-0.03,0.18
17.024,-0.17,-0.13,0.05,0.22
17.034,-0.23,-0.10,0.07,0.26
17.044,-0.24,-0.12,0.04,0.27
17.054,-0.24,-0.15,-0.02,0.28
17.064,-0.22,-0.14,-0.08,0.28
17.074,-0.21,-0.11,-0.05,0.25
17.084,-0.19,-0.07,-0.08,0.21
17.094,-0.15,-0.07,-0.08,0.18
17.104,-0.12,-0.03,-0.10,0.16
17.114,-0.12,-0.04,-0.12,0.17
17.124,-0.15,-0.03,-0.10,0.18
17.134,-0.17,-0.01,-0.15,0.23
17.144,-0.20,-0.01,-0.17,0.26
17.154,-0.20,-0.00,-0.19,0.28
17.164,-0.22,0.02,-0.16,0.28
17.174,-0.25,0.03,-0.17,0.31
17.184,-0.31,0.00,-0.14,0.34
17.194,-0.31,-0.03,-0.10,0.33
17.204,-0.33,-0.02,-0.17,0.37
17.214,-0.35,-0.05,-0.12,0.38
17.224,-0.38,-0.05,-0.02,0.38
17.234,-0.40,-0.07,0.07,0.41
17.244,-0.43,-0.05,0.08,0.44
17.254,-0.43,-0.08,0.07,0.44
17.264,-0.33,-0.10,0.06,0.35
17.274,-0.21,-0.11,0.01,0.23
17.284,-0.11,-0.14,0.01,0.18
17.294,-0.06,-0.15,0.05,0.17
17.304,-0.05,-0.16,0.08,0.18
17.314,-0.00,-0.16,0.02,0.16
17.324,-0.01,-0.19,0.01,0.19
17.334,-0.02,-0.21,0.07,0.22
17.344,0.04,-0.17,0.10,0.21
17.354,0.01,-0.19,0.13,0.23
17.364,0.01,-0.21,0.17,0.27
17.374,0.03,-0.18,0.17,0.25
17.384,0.03,-0.17,0.13,0.21
17.394,0.03,-0.19,0.10,0.22
17.404,0.01,-0.18,0.05,0.19
17.414,0.04,-0.16,-0.08,0.19
17.424,0.07,-0.20,-0.14,0.25
17.434,0.01,-0.19,-0.06,0.20
17.444,-0.05,-0.13,0.11,0.18
17.454,-0.09,-0.08,0.20,0.23
17.464,-0.13,-0.04,0.12,0.19
17.474,-0.18,-0.04,0.03,0.19
17.484,-0.19,-0.02,-0.02,0.20
17.494,-0.22,-0.02,-0.01,0.22
17.504,-0.24,-0.00,0.02,0.24
17.514,-0.22,0.03,0.04,0.22
17.524,-0.19,0.03,-0.01,0.19
17.534,-0.13,0.01,-0.01,0.13
17.544,-0.07,0.03,-0.02,0.08
17.554,-0.02,0.05,-0.05,0.07
17.564,-0.03,0.06,-0.05,0.08
17.574,-0.06,0.05,-0.02,0.08
17.584,-0.09,0.05,0.00,0.10
17.594,-0.14,0.02,-0.02,0.14
17.604,-0.14,0.01,-0.05,0.15
17.614,-0.11,0.01,-0.08,0.14
17.624,-0.14,-0.02,-0.08,0.16
17.634,-0.14,-0.04,-0.08,0.17
17.644,-0.18,-0.05,-0.06,0.20
17.654,-0.19,-0.02,-0.00,0.19
17.664,-0.20,-0.01,0.04,0.20
17.674,-0.20,-0.02,0.02,0.20
17.684,-0.16,-0.09,0.01,0.18
17.694,-0.12,-0.10,-0.04,0.17
17.704,-0.06,-0.11,-0.08,0.15
17.714,-0.04,-0.13,-0.09,0.16
17.724,-0.06,-0.15,-0.10,0.19
17.734,-0.10,-0.16,-0.08,0.21
17.744,-0.15,-0.15,-0.04,0.22
17.754,-0.17,-0.15,-0.01,0.23
17.764,-0.17,-0.14,-0.01,0.22
17.774,-0.13,-0.11,-0.04,0.17
17.784,-0.12,-0.12,-0.04,0.17
17.794,-0.17,-0.09,-0.01,0.19
17.804,-0.12,-0.09,0.01,0.15
17.814,-0.12,-0.08,0.04,0.15
17.824,-0.11,-0.04,0.04,0.12
17.834,-0.09,0.00,0.03,0.10
17.844,-0.06,0.00,0.04,0.07
17.854,-0.07,0.00,0.02,0.07
17.864,-0.08,0.02,0.03,0.09
17.874,-0.06,0.04,0.00,0.07
17.884,-0.02,0.05,-0.05,0.07
17.894,-0.01,0.06,-0.03,0.07
17.904,-0.02,0.06,-0.01,0.06
17.914,-0.04,0.05,-0.01,0.06
17.924,-0.05,0.02,-0.02,0.06
17.934,-0.05,0.02,-0.03,0.06
17.944,-0.06,0.02,-0.01,0.07
17.954,-0.09,-0.01,0.01,0.09
17.964,-0.13,-0.04,-0.01,0.14
17.974,-0.11,-0.04,-0.06,0.13
17.984,-0.11,-0.07,-0.08,0.15
17.994,-0.12,-0.08,-0.11,0.18
18.004,-0.13,-0.09,-0.10,0.19
18.014,-0.13,-0.09,-0.08,0.18
18.024,-0.16,-0.09,-0.01,0.18
18.034,-0.20,-0.09,0.04,0.22
18.044,-0.18,-0.06,0.05,0.20
18.054,-0.18,-0.06,0.05,0.20
18.064,-0.21,-0.07,-0.01,0.22
18.074,-0.19,-0.09,-0.04,0.21
18.084,-0.19,-0.09,0.01,0.21
18.094,-0.19,-0.06,0.01,0.20
18.104,-0.20,-0.06,0.00,0.21
18.114,-0.20,-0.05,-0.04,0.21
18.124,-0.16,-0.04,-0.09,0.19
18.134,-0.14,-0.05,-0.13,0.19
18.144,-0.10,-0.03,-0.14,0.17
18.154,-0.11,-0.03,-0.10,0.15
18.164,-0.15,0.01,-0.05,0.16
18.174,-0.16,0.05,-0.05,0.17
18.184,-0.18,0.05,-0.05,0.20
18.194,-0.18,0.07,0.02,0.20
18.204,-0.15,0.12,-0.00,0.19
18.214,-0.14,0.11,-0.01,0.18
18.224,-0.14,0.10,-0.03,0.18
18.234,-0.10,0.09,-0.10,0.17
18.244,-0.12,0.07,-0.05,0.15
18.255,-0.13,0.07,0.05,0.16
18.264,-0.16,0.11,0.09,0.21
18.274,-0.16,0.11,0.10,0.22
18.284,-0.14,0.06,0.06,0.16
18.295,-0.10,0.01,-0.00,0.10
18.305,-0.03,0.00,0.03,0.04
18.315,-0.03,0.02,0.04,0.05
18.325,-0.03,0.03,0.06,0.07
18.334,-0.06,0.03,0.03,0.08
18.344,-0.04,0.02,-0.07,0.08
18.354,-0.09,-0.02,-0.08,0.12
18.364,-0.13,-0.04,0.00,0.13
18.375,-0.12,-0.01,0.04,0.13
18.385,-0.06,0.01,-0.02,0.06
18.395,-0.01,-0.01,-0.10,0.10
18.405,-0.01,-0.04,-0.12,0.12
18.415,-0.06,-0.01,-0.05,0.08
18.425,-0.14,0.03,0.03,0.15
18.435,-0.25,0.00,0.07,0.25
18.445,-0.24,-0.02,0.02,0.24
18.455,-0.20,-0.02,-0.01,0.20
18.465,-0.11,-0.01,-0.00,0.11
18.475,-0.05,0.02,0.02,0.06
18.485,-0.03,0.02,0.01,0.04
18.495,-0.09,-0.01,-0.03,0.09
18.505,-0.10,-0.04,-0.08,0.14
18.515,-0.10,-0.05,-0.08,0.14
18.525,-0.11,-0.03,-0.05,0.13
18.535,-0.11,0.02,0.01,0.12
18.545,-0.13,0.03,0.04,0.14
18.555,-0.16,0.06,0.04,0.17
18.565,-0.15,0.07,0.04,0.17
18.575,-0.20,0.07,0.06,0.22
18.585,-0.17,0.08,0.09,0.21
18.595,-0.13,0.14,0.04,0.19
18.605,-0.12,0.06,0.01,0.13
18.615,-0.16,-0.00,-0.02,0.16
18.625,-0.10,-0.01,-0.07,0.12
18.635,0.01,0.05,-0.10,0.11
18.645,0.02,0.06,-0.07,0.10
18.655,-0.02,0.04,-0.03,0.06
18.665,-0.01,0.06,0.00,0.06
18.675,-0.01,0.02,0.03,0.03
18.685,-0.07,0.04,0.01,0.08
18.695,-0.06,0.06,0.04,0.10
18.705,-0.04,0.07,0.06,0.10
18.715,-0.10,0.09,0.01,0.13
18.725,-0.09,0.10,-0.07,0.15
18.735,-0.08,0.08,-0.08,0.14
18.745,-0.08,0.07,-0.03,0.12
18.755,-0.05,0.12,0.05,0.14
18.765,-0.07,0.17,0.04,0.19
18.775,-0.09,0.17,-0.03,0.19
18.785,-0.10,0.17,-0.00,0.20
18.795,-0.12,0.20,0.03,0.24
18.805,-0.18,0.18,0.09,0.27
18.815,-0.18,0.18,0.15,0.29
18.825,-0.14,0.18,0.17,0.29
18.835,-0.11,0.19,0.09,0.24
18.845,-0.11,0.14,0.03,0.18
18.855,-0.11,0.12,-0.00,0.16
18.865,-0.07,0.12,-0.01,0.14
18.875,-0.11,0.14,-0.02,0.18
18.885,-0.11,0.12,-0.01,0.17
18.895,-0.06,0.09,0.00,0.11
18.905,-0.07,0.10,-0.03,0.12
18.915,-0.05,0.02,-0.04,0.06
18.925,-0.08,-0.02,0.01,0.08
18.935,-0.10,-0.01,-0.02,0.10
18.945,-0.15,-0.05,-0.08,0.18
18.955,-0.20,-0.08,-0.09,0.23
18.965,-0.24,-0.10,-0.03,0.26
18.975,-0.25,-0.10,-0.03,0.27
18.985,-0.20,-0.09,-0.08,0.24
18.995,-0.15,-0.06,-0.08,0.18
19.005,-0.11,-0.05,-0.09,0.15
19.015,-0.11,-0.02,-0.09,0.14
19.025,-0.11,-0.03,-0.09,0.15
19.035,-0.15,-0.04,-0.06,0.17
19.045,-0.13,-0.02,-0.09,0.16
19.055,-0.10,-0.03,-0.09,0.14
19.065,-0.06,-0.05,-0.04,0.09
19.075,-0.03,-0.00,-0.04,0.05
19.085,-0.02,0.05,-0.08,0.09
19.095,-0.07,0.05,-0.08,0.12
19.105,-0.11,0.02,-0.07,0.13
19.115,-0.14,0.04,-0.08,0.17
19.125,-0.21,0.05,-0.06,0.23
19.135,-0.21,0.09,-0.04,0.23
19.145,-0.19,0.09,-0.06,0.22
19.155,-0.18,0.05,-0.05,0.20
19.165,-0.15,0.07,-0.07,0.18
19.175,-0.10,0.06,-0.05,0.13
19.185,-0.11,0.05,-0.06,0.13
19.195,-0.08,0.03,-0.05,0.10
19.205,-0.06,0.01,-0.00,0.06
19.215,-0.08,-0.03,0.04,0.10
19.225,-0.14,-0.06,0.13,0.20
19.235,-0.14,-0.05,0.20,0.25
19.245,-0.14,-0.05,0.20,0.25
19.255,-0.14,-0.04,0.13,0.20
19.265,-0.11,-0.03,0.06,0.13
19.275,-0.07,-0.06,-0.00,0.09
19.285,-0.01,-0.04,-0.11,0.12
19.295,0.02,-0.01,-0.14,0.14
19.305,0.03,-0.00,-0.12,0.12
19.315,-0.01,0.03,-0.05,0.06
19.325,-0.12,0.04,0.06,0.14
19.335,-0.23,0.03,0.11,0.25
19.345,-0.27,0.01,0.10,0.29
19.355,-0.25,0.01,0.08,0.27
19.365,-0.19,0.02,0.07,0.20
19.375,-0.14,0.04,0.07,0.16
19.385,-0.13,0.04,0.03,0.14
19.395,-0.11,0.01,-0.03,0.11
19.405,-0.01,-0.00,-0.10,0.10
19.415,0.05,-0.01,-0.14,0.15
19.425,0.02,-0.02,-0.16,0.16
19.435,-0.01,-0.05,-0.10,0.11
19.445,-0.11,-0.09,0.00,0.14
19.455,-0.18,-0.06,0.03,0.19
19.465,-0.23,-0.07,0.00,0.24
19.475,-0.23,-0.07,0.01,0.24
19.485,-0.24,-0.07,-0.02,0.25
19.495,-0.23,-0.09,-0.08,0.26
19.505,-0.20,-0.13,-0.13,0.27
19.515,-0.16,-0.16,-0.13,0.26
19.525,-0.13,-0.12,-0.10,0.20
19.535,-0.15,-0.09,-0.10,0.20
19.545,-0.18,-0.09,-0.14,0.24
19.555,-0.23,-0.08,-0.10,0.26
19.565,-0.23,-0.06,-0.02,0.24
19.575,-0.25,-0.01,-0.00,0.25
19.585,-0.21,0.01,-0.05,0.22
19.595,-0.17,0.01,-0.11,0.21
19.605,-0.13,-0.01,-0.12,0.18
19.615,-0.13,0.00,-0.04,0.14
19.625,-0.13,0.04,0.03,0.14
19.635,-0.14,0.08,0.09,0.19
19.645,-0.17,0.08,0.12,0.22
19.655,-0.12,0.09,0.05,0.16
19.665,-0.05,0.06,0.00,0.08
19.676,0.01,0.05,0.02,0.05
19.685,0.06,0.07,0.01,0.09
19.695,0.07,0.07,0.06,0.12
19.705,0.04,0.02,0.07,0.09
19.715,-0.05,0.01,0.10,0.11
19.725,-0.06,-0.01,0.12,0.14
19.735,-0.08,-0.01,0.13,0.16
19.745,-0.09,-0.01,0.11,0.15
19.755,-0.06,-0.01,0.10,0.11
19.765,-0.05,-0.01,0.07,0.09
19.775,-0.07,-0.04,0.05,0.09
19.785,-0.09,-0.07,0.05,0.13
19.795,-0.07,-0.06,0.05,0.11
19.805,-0.06,-0.07,0.04,0.10
19.815,-0.07,-0.08,0.05,0.12
19.826,-0.08,-0.08,0.07,0.13
19.835,-0.07,-0.09,0.07,0.13
19.846,-0.05,-0.08,0.08,0.12
19.855,-0.03,-0.07,0.06,0.09
19.865,-0.05,-0.05,0.07,0.10
19.876,-0.09,-0.06,0.03,0.11
19.886,-0.15,-0.08,0.04,0.18
19.896,-0.18,-0.07,0.05,0.20
19.906,-0.20,-0.06,0.05,0.21
19.916,-0.19,-0.06,0.06,0.21
19.926,-0.15,-0.05,-0.01,0.16
19.935,-0.11,-0.05,-0.03,0.12
19.946,-0.08,-0.05,-0.02,0.10
19.956,-0.10,-0.05,-0.04,0.12
19.965,-0.14,-0.07,-0.03,0.16
19.975,-0.18,-0.09,0.02,0.21
19.986,-0.21,-0.07,0.01,0.23
19.996,-0.21,-0.09,-0.02,0.23
20.003,-0.16,-0.09,-0.05,0.20
20.013,-0.08,-0.08,-0.04,0.12
20.023,-0.08,-0.06,-0.02,0.10
20.033,-0.13,-0.04,-0.04,0.14
20.043,-0.14,-0.05,-0.09,0.17
20.053,-0.17,-0.04,-0.08,0.19
20.063,-0.20,-0.05,-0.10,0.23
20.073,-0.20,-0.05,-0.01,0.21
20.083,-0.16,-0.02,0.05,0.17
20.093,-0.11,-0.00,0.01,0.11
20.103,-0.11,-0.03,-0.03,0.12
20.113,-0.09,-0.03,-0.07,0.12
20.123,-0.08,-0.04,-0.05,0.11
20.133,-0.12,-0.05,-0.02,0.13
20.143,-0.17,-0.06,0.01,0.19
20.153,-0.22,-0.05,0.06,0.23
20.163,-0.26,-0.04,0.06,0.27
20.173,-0.28,-0.02,0.05,0.28
20.183,-0.24,-0.01,-0.04,0.25
20.193,-0.17,-0.01,-0.18,0.25
20.203,-0.14,-0.05,-0.16,0.22
20.213,-0.12,-0.04,-0.05,0.13
20.225,-0.09,0.00,-0.01,0.09
20.234,-0.03,0.00,-0.04,0.05
20.243,-0.05,-0.02,-0.02,0.06
20.253,-0.05,-0.04,0.02,0.07
20.263,-0.06,-0.02,0.03,0.07
20.273,-0.07,0.01,0.02,0.07
20.283,-0.08,0.02,0.00,0.08
20.293,-0.09,0.04,-0.07,0.12
20.303,-0.15,0.01,-0.09,0.17
20.313,-0.15,0.00,-0.02,0.15
20.324,-0.15,0.03,0.04,0.15
20.333,-0.15,0.02,0.07,0.17
20.343,-0.13,0.01,0.09,0.16
20.353,-0.13,0.04,0.08,0.15
20.367,-0.16,0.03,0.04,0.17
20.377,-0.18,0.01,0.01,0.18
20.387,-0.19,-0.00,0.01,0.19
20.397,-0.17,0.01,0.05,0.17
20.407,-0.08,0.05,0.03,0.11
20.417,-0.11,0.03,0.03,0.11
20.427,-0.10,-0.01,0.02,0.11
20.437,-0.09,-0.03,-0.03,0.10
20.447,-0.07,-0.03,-0.02,0.08
20.457,-0.08,-0.01,0.02,0.09
20.467,-0.08,-0.00,0.06,0.10
20.477,-0.08,-0.03,0.06,0.10
20.487,-0.08,-0.03,0.03,0.09
20.497,-0.08,-0.02,0.01,0.09
20.507,-0.08,-0.02,0.01,0.08
20.517,-0.10,-0.03,0.02,0.11
20.527,-0.09,-0.02,0.06,0.11
20.537,-0.07,0.00,0.07,0.10
20.547,-0.07,0.03,0.01,0.08
20.557,-0.03,0.00,-0.07,0.07
20.567,0.02,-0.01,-0.09,0.09
20.577,0.02,-0.03,-0.01,0.04
20.587,-0.00,-0.00,0.04,0.04
20.597,-0.04,0.02,0.08,0.09
20.607,-0.13,0.01,0.10,0.17
20.617,-0.15,-0.01,0.07,0.16
20.627,-0.09,-0.03,-0.05,0.11
20.637,-0.00,-0.00,-0.15,0.15
20.647,0.02,0.01,-0.17,0.17
20.657,0.01,-0.01,-0.05,0.05
20.667,-0.02,0.03,0.06,0.07
20.677,-0.06,0.04,0.09,0.12
20.687,-0.10,0.06,0.05,0.13
20.697,-0.05,0.06,0.01,0.08
20.707,-0.04,0.04,0.05,0.07
20.717,-0.01,0.02,0.09,0.09
20.727,0.04,0.04,0.07,0.10
20.737,0.12,0.03,0.03,0.12
20.747,0.08,0.01,-0.01,0.08
20.757,0.07,-0.06,-0.06,0.11
20.768,0.15,-0.07,-0.08,0.19
20.777,0.25,-0.11,-0.14,0.31
20.787,0.26,-0.13,-0.29,0.42
20.797,0.26,-0.08,-0.29,0.40
20.807,0.22,-0.16,-0.08,0.28
20.817,0.36,-0.18,-0.09,0.41
20.827,0.51,-0.26,-0.08,0.58
20.837,0.49,-0.43,-0.05,0.66
20.847,0.55,-0.45,-0.31,0.77
20.857,0.64,-0.34,-0.72,1.02
20.867,0.69,-0.32,-0.80,1.10
20.877,0.57,-0.30,-0.73,0.97
20.887,0.53,-0.30,-0.59,0.85
20.897,0.58,-0.30,-0.31,0.73
20.908,0.60,-0.37,0.11,0.71
20.917,0.62,-0.45,0.40,0.87
20.928,0.60,-0.40,0.55,0.91
20.937,0.44,-0.36,0.84,1.01
20.948,0.21,-0.35,1.24,1.31
20.957,0.10,-0.20,1.31,1.33
20.967,0.26,-0.15,1.22,1.26
20.978,0.55,-0.36,1.01,1.21
20.987,0.86,-0.35,0.57,1.09
20.997,1.32,-0.02,-0.05,1.32
21.008,0.98,0.10,-0.54,1.12
21.018,0.30,0.02,-0.68,0.75
21.028,-0.10,0.15,-0.25,0.31
21.038,0.18,0.27,0.76,0.82
21.048,0.66,0.31,1.63,1.79
21.057,0.77,0.39,2.38,2.53
21.068,0.41,0.25,2.29,2.34
21.078,0.31,0.26,1.19,1.26
21.088,0.79,0.20,-0.07,0.82
21.098,1.49,-0.24,-0.37,1.55
21.107,0.87,-0.18,-0.96,1.31
21.117,-0.57,-0.12,-1.29,1.41
21.128,-1.58,0.10,-1.15,1.96
21.138,-0.67,0.36,-1.08,1.32
21.148,0.60,0.29,-0.94,1.15
21.158,1.14,0.00,-0.56,1.27
21.168,1.98,-0.38,0.27,2.03
21.178,2.49,-0.47,1.17,2.79
21.188,2.43,-0.42,1.78,3.04
21.198,2.24,-0.16,1.40,2.64
21.208,2.21,-0.08,0.13,2.21
21.218,2.14,-0.33,-1.02,2.40
21.228,2.05,-0.38,-2.03,2.91
21.238,2.10,-0.36,-3.11,3.77
21.248,1.85,-0.37,-3.79,4.23
21.258,1.06,-0.46,-3.75,3.93
21.268,0.54,-0.76,-2.94,3.09
21.278,1.22,-1.40,-2.34,2.98
21.288,1.82,-1.95,-1.77,3.20
21.298,1.21,-1.75,-0.09,2.13
21.308,1.22,-1.49,1.38,2.37
21.318,1.58,-1.15,2.07,2.85
21.328,1.26,-0.99,1.97,2.55
21.338,0.69,-0.88,1.16,1.61
21.348,0.37,-0.75,0.24,0.87
21.358,0.52,-0.72,-0.51,1.02
21.368,1.03,-0.92,-1.23,1.85
21.378,1.48,-1.55,-2.22,3.09
21.388,1.88,-2.01,-2.49,3.71
21.398,2.50,-2.00,-1.36,3.48
21.408,2.48,-1.88,0.02,3.12
21.418,1.50,-1.81,0.38,2.38
21.428,0.80,-1.81,0.17,1.98
21.438,0.39,-1.98,0.29,2.04
21.448,-0.51,-1.98,0.24,2.06
21.458,-0.50,-1.97,-0.47,2.09
21.468,0.66,-1.86,-1.00,2.22
21.478,1.61,-1.58,-1.20,2.55
21.488,2.13,-1.54,-1.32,2.94
21.498,2.57,-1.44,-1.32,3.23
21.508,2.59,-1.16,-1.15,3.06
21.518,2.66,-1.25,-0.92,3.08
21.528,3.05,-1.56,-0.70,3.50
21.538,2.92,-1.52,-0.41,3.32
21.548,0.22,-1.86,-0.63,1.98
21.558,-1.78,-1.09,-1.68,2.68
21.568,-2.67,-0.17,-1.66,3.15
21.578,-2.39,-0.11,-0.69,2.49
21.588,-0.68,-0.26,0.28,0.79
21.598,0.94,-0.66,0.93,1.48
21.608,0.63,-1.06,1.34,1.82
21.618,0.32,-0.92,1.25,1.58
21.628,0.16,-0.57,0.78,0.98
21.638,0.13,-0.62,1.09,1.26
21.648,0.39,-0.51,0.85,1.06
21.658,0.38,-0.60,1.50,1.66
21.668,1.07,-0.14,1.43,1.80
21.678,1.24,0.07,1.44,1.90
21.688,0.12,-0.18,0.99,1.02
21.698,-0.75,-0.25,0.52,0.95
21.708,-1.20,-0.33,0.58,1.37
21.718,-1.25,-0.20,0.75,1.48
21.728,-0.78,-0.34,0.99,1.31
21.738,-0.34,-0.24,1.13,1.20
21.748,-0.18,0.34,0.97,1.04
21.758,0.12,0.23,0.70,0.75
21.768,0.09,-0.04,0.38,0.39
21.778,0.04,0.19,0.13,0.23
21.788,-0.36,0.20,-0.10,0.43
21.798,-0.57,0.29,-0.28,0.70
21.808,-0.56,0.41,-0.13,0.71
21.818,-0.48,0.45,0.12,0.67
21.828,-0.59,0.34,0.35,0.76
21.838,-0.96,0.17,0.47,1.08
21.848,-1.23,0.03,0.49,1.33
21.858,-1.26,-0.02,0.47,1.35
21.868,-1.05,-0.11,0.30,1.09
21.878,-0.80,-0.15,0.09,0.82
21.888,-0.59,-0.04,0.00,0.59
21.898,-0.44,0.15,-0.04,0.46
21.908,-0.34,0.35,-0.21,0.53
21.918,-0.48,0.57,-0.52,0.91
21.928,-0.81,0.41,-0.68,1.14
21.938,-0.61,0.16,-0.60,0.87
21.948,-0.38,0.17,-0.56,0.70
21.958,-0.32,0.28,-0.57,0.70
21.968,-0.17,0.20,-0.58,0.64
21.978,-0.26,0.05,-0.87,0.91
21.988,-0.40,0.14,-1.03,1.12
21.998,-0.24,0.12,-0.99,1.02
22.008,-0.05,0.03,-0.78,0.78
22.018,-0.05,0.08,-0.55,0.56
22.028,-0.22,0.14,-0.48,0.55
22.038,-0.36,0.10,-0.42,0.57
22.048,-0.40,0.05,-0.38,0.56
22.058,-0.35,0.08,-0.41,0.55
22.068,-0.26,0.01,-0.38,0.46
22.078,-0.16,0.03,-0.15,0.22
22.088,-0.15,0.02,0.10,0.18
22.098,-0.23,0.07,0.24,0.34
22.108,-0.32,0.12,0.35,0.49
22.118,-0.34,0.06,0.35,0.49
22.128,-0.39,-0.07,0.39,0.55
22.138,-0.51,-0.22,0.32,0.64
22.148,-0.57,-0.37,0.14,0.69
22.158,-0.49,-0.40,0.12,0.64
22.168,-0.43,-0.32,0.19,0.57
22.178,-0.34,-0.09,0.27,0.44
22.188,-0.22,0.06,0.28,0.36
22.198,-0.08,0.10,0.17,0.22
22.208,-0.01,0.18,0.10,0.20
22.219,0.00,0.28,0.06,0.29
22.228,0.09,0.31,0.08,0.34
22.238,0.11,0.28,-0.28,0.41
22.248,-0.04,0.23,-0.64,0.68
22.258,-0.29,-0.09,-0.97,1.02
22.268,-0.58,-0.21,-1.13,1.29
22.278,-0.74,-0.22,-1.03,1.28
22.288,-0.70,-0.25,-0.73,1.04
22.298,-0.47,-0.21,-0.39,0.65
22.308,-0.33,-0.11,-0.12,0.37
22.318,-0.33,-0.02,-0.05,0.34
22.328,-0.32,0.02,-0.23,0.39
22.338,-0.20,0.05,-0.49,0.53
22.348,-0.15,0.19,-0.79,0.83
22.358,-0.02,0.38,-1.17,1.23
22.368,0.05,0.51,-1.52,1.60
