time,ax,ay,az,atotal
0.000,0.12,0.17,-0.18,0.27
0.010,0.14,0.19,-0.19,0.30
0.020,0.12,0.10,-0.14,0.21
0.030,0.04,0.01,-0.06,0.07
0.040,-0.04,0.02,-0.04,0.06
0.050,-0.03,0.08,-0.02,0.09
0.060,0.05,0.09,-0.01,0.10
0.070,0.06,0.05,0.03,0.08
0.080,0.08,0.00,0.01,0.09
0.090,0.04,0.03,-0.04,0.07
0.100,-0.02,0.04,0.00,0.04
0.110,-0.12,0.02,-0.07,0.14
0.120,0.08,-0.00,-0.05,0.09
0.130,0.07,-0.06,-0.09,0.13
0.140,-0.04,-0.09,-0.17,0.19
0.150,-0.03,-0.03,-0.12,0.12
0.160,0.01,-0.07,-0.05,0.09
0.170,0.07,-0.17,-0.01,0.18
0.180,0.08,-0.19,0.00,0.21
0.190,-0.01,-0.08,-0.05,0.09
0.200,-0.05,0.03,-0.09,0.11
0.210,0.14,0.13,-0.07,0.21
0.220,0.20,0.09,-0.14,0.26
0.230,0.10,-0.07,-0.10,0.16
0.240,0.21,-0.19,-0.07,0.30
0.250,0.19,-0.20,-0.31,0.42
0.260,0.15,0.08,-0.46,0.49
0.270,0.28,0.17,-0.44,0.55
0.280,0.54,0.18,-0.42,0.71
0.290,0.54,0.16,-0.52,0.77
0.300,0.21,0.05,-0.58,0.62
0.310,0.06,-0.05,-0.49,0.50
0.320,0.11,-0.14,-0.44,0.47
0.330,0.17,-0.20,-0.41,0.49
0.340,0.30,-0.25,-0.33,0.51
0.350,0.43,-0.18,-0.30,0.55
0.360,0.42,-0.10,-0.34,0.56
0.370,0.32,-0.07,-0.54,0.63
0.380,0.38,-0.11,-0.45,0.60
0.390,0.39,-0.22,-0.21,0.49
0.400,0.41,-0.34,-0.23,0.59
0.410,0.44,-0.51,-0.10,0.68
0.420,0.59,-0.64,-0.09,0.87
0.430,0.75,-0.70,-0.20,1.04
0.440,0.81,-0.63,-0.28,1.07
0.450,0.59,-0.47,-0.30,0.81
0.460,0.41,-0.40,-0.22,0.61
0.470,0.30,-0.47,-0.25,0.61
0.480,0.23,-0.55,-0.27,0.66
0.490,0.12,-0.75,-0.16,0.78
0.500,-0.13,-0.64,0.17,0.68
0.510,-0.73,-0.11,0.24,0.78
0.520,-0.78,0.19,0.22,0.83
0.530,-0.23,0.23,0.21,0.39
0.540,0.26,0.05,-0.01,0.27
0.550,0.66,-0.30,-0.06,0.73
0.560,1.29,-0.38,-0.09,1.35
0.570,1.36,-0.37,-0.21,1.43
0.580,1.05,-0.49,-0.38,1.22
0.590,0.39,-0.72,-0.38,0.91
0.600,-0.20,-0.69,-0.28,0.77
0.610,-0.53,-0.42,0.04,0.68
0.620,-0.69,-0.19,0.26,0.76
0.630,-0.71,-0.14,0.24,0.77
0.640,-0.56,-0.28,0.25,0.68
0.650,-0.24,-0.55,0.01,0.60
0.660,0.28,-0.79,-0.19,0.86
0.670,0.94,-0.81,-0.46,1.32
0.680,1.45,-0.67,-0.93,1.85
0.690,1.58,-0.49,-1.35,2.14
0.701,1.23,-0.37,-1.53,2.00
0.710,0.87,-0.36,-1.48,1.75
0.721,0.61,-0.43,-1.07,1.30
0.730,0.14,-0.45,-0.77,0.91
0.741,-0.12,-0.59,-0.62,0.86
0.750,-0.25,-0.67,-0.54,0.90
0.761,-0.42,-0.62,-0.54,0.93
0.770,-0.45,-0.56,-0.53,0.89
0.781,0.01,-0.47,-0.43,0.64
0.790,0.50,-0.54,-0.21,0.76
0.800,0.70,-0.61,-0.00,0.93
0.811,0.69,-0.51,-0.05,0.86
0.821,0.55,-0.40,-0.47,0.83
0.830,0.04,-0.14,-0.78,0.79
0.841,-0.44,0.19,-0.93,1.05
0.851,-0.47,0.50,-1.03,1.24
0.861,-0.24,0.56,-0.82,1.02
0.871,-0.10,0.25,-0.35,0.44
0.881,-0.06,-0.32,0.20,0.38
0.891,0.34,-0.87,0.34,0.99
0.901,0.84,-0.95,0.04,1.26
0.911,0.96,-0.81,-0.15,1.26
0.921,0.67,-0.78,-0.25,1.06
0.931,0.42,-0.48,-0.47,0.79
0.941,0.40,0.17,-0.52,0.68
0.951,0.17,0.57,-0.35,0.69
0.961,-0.21,0.54,0.13,0.59
0.971,-0.46,0.23,0.78,0.94
0.981,-0.63,-0.28,1.24,1.42
0.991,-0.53,-0.74,1.28,1.57
1.001,-0.06,-0.82,1.03,1.32
1.011,0.17,-0.67,0.57,0.89
1.021,0.22,-0.46,0.13,0.52
1.031,0.25,-0.19,-0.05,0.32
1.041,-0.01,-0.05,-0.16,0.17
1.051,-0.25,-0.02,-0.22,0.34
1.061,-0.55,-0.01,-0.05,0.55
1.071,-0.71,-0.15,0.39,0.82
1.081,-0.69,-0.29,0.79,1.09
1.091,-0.60,-0.20,0.89,1.10
1.101,-0.43,-0.02,0.94,1.03
1.111,-0.48,0.10,1.02,1.13
1.121,-0.61,0.10,1.10,1.26
1.131,-0.16,0.16,1.15,1.17
1.141,0.30,0.15,1.05,1.10
1.151,-0.00,0.02,1.30,1.30
1.161,-0.17,-0.12,1.31,1.33
1.171,-0.10,-0.14,0.96,0.97
1.181,-0.41,-0.16,0.42,0.61
1.191,-0.57,-0.23,-0.27,0.67
1.201,-0.25,-0.24,-0.37,0.51
1.211,-0.27,-0.20,0.15,0.37
1.221,-0.47,-0.26,0.64,0.84
1.231,-0.57,-0.28,1.10,1.27
1.241,-0.78,-0.24,1.34,1.57
1.251,-0.83,-0.19,1.24,1.50
1.261,-0.54,0.04,1.00,1.14
1.271,-0.22,0.49,0.69,0.87
1.281,-0.04,0.62,0.62,0.88
1.291,0.08,0.65,0.85,1.07
1.301,0.02,0.73,1.05,1.28
1.311,-0.09,0.65,1.14,1.32
1.321,-0.12,0.54,1.25,1.37
1.331,-0.21,0.54,1.29,1.41
1.341,-0.09,0.57,1.35,1.47
1.351,0.16,0.57,1.59,1.70
1.361,0.12,0.54,1.74,1.82
1.371,0.17,0.52,1.59,1.68
1.381,0.24,0.53,1.25,1.38
1.391,0.26,0.50,0.77,0.96
1.401,0.40,0.47,0.50,0.79
1.411,0.42,0.31,0.74,0.91
1.421,0.20,0.17,1.27,1.29
1.431,0.01,-0.00,1.92,1.92
1.441,-0.26,-0.20,2.30,2.32
1.451,-0.32,-0.18,2.21,2.24
1.461,-0.50,-0.11,2.60,2.65
1.471,-0.49,-0.18,3.10,3.14
1.481,-0.25,0.05,3.01,3.02
1.491,-0.11,0.46,2.61,2.65
1.501,-0.24,0.74,2.27,2.39
1.511,-0.23,0.75,2.01,2.16
1.521,-0.19,0.62,2.10,2.20
1.531,-0.49,0.56,2.35,2.46
1.541,-0.95,0.40,2.49,2.70
1.551,-1.21,0.19,2.34,2.64
1.561,-0.98,0.23,1.80,2.06
1.571,-0.57,0.35,1.12,1.30
1.581,-0.10,0.13,0.67,0.69
1.591,-0.31,0.16,0.53,0.64
1.601,-0.52,0.31,0.62,0.86
1.611,-0.31,0.25,0.58,0.70
1.621,-0.02,0.11,0.64,0.65
1.631,0.35,-0.09,0.80,0.88
1.641,0.65,-0.17,1.04,1.24
1.651,0.65,-0.13,0.98,1.18
1.661,0.48,0.06,0.76,0.90
1.671,0.19,0.22,0.53,0.60
1.681,-0.06,0.26,0.31,0.41
1.691,-0.19,0.11,0.22,0.31
1.701,-0.42,-0.07,0.18,0.46
1.711,-0.53,0.01,0.08,0.54
1.721,-0.33,0.16,-0.00,0.36
1.731,-0.14,0.24,0.02,0.28
1.741,-0.12,0.17,0.21,0.29
1.751,-0.08,0.07,0.50,0.51
1.761,-0.12,0.06,0.62,0.63
1.771,-0.05,0.15,0.56,0.58
1.781,0.18,0.41,0.32,0.55
1.791,0.35,0.62,0.10,0.72
1.801,0.38,0.60,0.08,0.71
1.811,0.13,0.57,0.19,0.61
1.821,-0.13,0.52,0.33,0.63
1.831,-0.31,0.37,0.46,0.66
1.841,-0.33,0.21,0.58,0.70
1.851,-0.23,0.15,0.54,0.61
1.861,-0.14,0.14,0.39,0.44
1.871,-0.08,0.26,0.22,0.35
1.881,0.01,0.46,-0.02,0.46
1.891,-0.07,0.42,-0.12,0.44
1.901,-0.23,0.33,0.03,0.40
1.911,-0.27,0.33,0.25,0.49
1.921,-0.29,0.31,0.40,0.59
1.931,-0.32,0.27,0.56,0.70
1.941,-0.32,0.28,0.60,0.73
1.951,-0.27,0.38,0.46,0.65
1.961,-0.20,0.44,0.21,0.53
1.971,-0.14,0.46,0.06,0.48
1.981,-0.20,0.36,-0.06,0.42
1.991,-0.28,0.27,-0.06,0.39
2.002,-0.25,0.21,0.01,0.33
2.011,-0.21,0.22,0.13,0.33
2.021,-0.13,0.19,0.29,0.37
2.031,-0.18,0.10,0.37,0.43
2.041,-0.24,0.03,0.47,0.53
2.051,-0.14,0.06,0.47,0.50
2.061,-0.03,0.11,0.51,0.53
2.071,-0.04,0.17,0.51,0.54
2.081,-0.12,0.18,0.44,0.49
2.091,-0.11,0.19,0.41,0.47
2.101,-0.04,0.24,0.35,0.43
2.112,0.00,0.21,0.28,0.35
2.121,0.02,0.15,0.21,0.26
2.132,-0.01,0.15,0.15,0.21
2.141,-0.08,0.11,0.18,0.22
2.151,-0.06,0.05,0.19,0.20
2.161,-0.05,0.02,0.19,0.20
2.172,-0.08,0.05,0.20,0.22
2.181,-0.17,0.08,0.18,0.26
2.192,-0.21,0.10,0.12,0.26
2.202,-0.23,0.18,0.03,0.29
2.212,-0.20,0.22,-0.05,0.30
2.222,-0.23,0.25,-0.04,0.34
2.232,-0.22,0.27,0.04,0.35
2.242,-0.20,0.25,0.14,0.35
2.252,-0.09,0.24,0.19,0.32
2.262,-0.05,0.24,0.23,0.33
2.271,-0.10,0.23,0.24,0.35
2.282,-0.10,0.25,0.22,0.35
2.292,-0.11,0.27,0.15,0.33
2.302,-0.13,0.27,0.14,0.33
2.312,-0.20,0.24,0.18,0.36
2.322,-0.18,0.22,0.25,0.38
2.332,-0.07,0.21,0.27,0.35
2.342,0.01,0.17,0.31,0.35
2.352,0.10,0.15,0.31,0.36
2.362,0.12,0.09,0.28,0.32
2.372,0.13,0.11,0.28,0.33
2.382,0.10,0.13,0.24,0.29
2.392,-0.01,0.15,0.21,0.25
2.402,-0.11,0.15,0.20,0.27
2.412,-0.19,0.17,0.13,0.29
2.422,-0.26,0.19,0.05,0.33
2.432,-0.30,0.22,0.03,0.38
2.442,-0.29,0.23,0.04,0.38
2.452,-0.21,0.22,0.04,0.31
2.462,-0.14,0.21,0.02,0.25
2.472,-0.09,0.20,0.03,0.22
2.482,-0.06,0.19,0.03,0.20
2.492,-0.09,0.18,0.04,0.20
2.502,-0.13,0.16,0.13,0.24
2.512,-0.12,0.16,0.26,0.33
2.522,-0.10,0.16,0.28,0.34
2.532,-0.09,0.14,0.28,0.33
2.542,-0.14,0.15,0.22,0.30
2.552,-0.19,0.17,0.14,0.29
2.562,-0.19,0.13,0.08,0.24
2.572,-0.15,0.12,0.05,0.20
2.582,-0.14,0.13,0.07,0.20
2.592,-0.13,0.10,0.16,0.23
2.602,-0.14,0.10,0.15,0.23
2.612,-0.11,0.14,0.10,0.20
2.622,-0.14,0.22,0.02,0.26
2.632,-0.23,0.25,0.01,0.34
2.642,-0.26,0.21,0.11,0.35
2.652,-0.25,0.17,0.29,0.42
2.662,-0.21,0.15,0.42,0.50
2.672,-0.20,0.14,0.45,0.51
2.682,-0.16,0.15,0.38,0.44
2.692,-0.08,0.17,0.27,0.33
2.702,-0.06,0.20,0.16,0.27
2.712,-0.07,0.17,0.09,0.21
2.722,-0.09,0.15,0.11,0.20
2.732,-0.13,0.16,0.13,0.24
2.742,-0.11,0.17,0.13,0.24
2.752,-0.03,0.17,0.18,0.25
2.762,-0.05,0.15,0.25,0.29
2.772,-0.10,0.15,0.34,0.39
2.782,-0.11,0.16,0.32,0.38
2.792,-0.13,0.15,0.23,0.31
2.802,-0.06,0.15,0.16,0.23
2.812,-0.01,0.19,0.07,0.20
2.822,0.02,0.19,0.02,0.19
2.832,-0.01,0.17,0.03,0.17
2.842,-0.07,0.15,0.11,0.20
2.852,-0.08,0.14,0.19,0.25
2.862,-0.09,0.14,0.23,0.28
2.872,-0.10,0.15,0.24,0.30
2.882,-0.16,0.13,0.22,0.30
2.892,-0.22,0.13,0.17,0.30
2.902,-0.15,0.13,0.10,0.22
2.912,-0.13,0.14,0.02,0.19
2.922,-0.19,0.12,0.07,0.24
2.932,-0.20,0.12,0.12,0.26
2.942,-0.13,0.13,0.11,0.21
2.952,-0.05,0.14,0.11,0.19
2.962,-0.10,0.14,0.16,0.23
2.972,-0.11,0.12,0.20,0.26
2.982,-0.11,0.11,0.19,0.24
2.992,-0.12,0.12,0.16,0.23
3.002,-0.14,0.10,0.12,0.21
3.012,-0.17,0.10,0.15,0.24
3.022,-0.17,0.13,0.11,0.24
3.032,-0.14,0.15,0.04,0.20
3.042,-0.16,0.14,0.07,0.22
3.052,-0.11,0.12,0.13,0.21
3.062,-0.08,0.11,0.13,0.19
3.072,-0.10,0.12,0.14,0.21
3.082,-0.11,0.12,0.14,0.21
3.092,-0.16,0.14,0.12,0.24
3.102,-0.23,0.15,0.09,0.29
3.112,-0.20,0.15,0.04,0.25
3.122,-0.12,0.14,0.00,0.18
3.132,-0.06,0.13,0.05,0.15
3.142,-0.03,0.11,0.08,0.14
3.152,-0.06,0.09,0.10,0.15
3.162,-0.11,0.08,0.18,0.23
3.172,-0.16,0.10,0.24,0.31
3.182,-0.20,0.11,0.20,0.30
3.192,-0.24,0.13,0.11,0.29
3.202,-0.24,0.16,0.04,0.29
3.212,-0.19,0.17,0.04,0.26
3.222,-0.14,0.15,0.13,0.24
3.232,-0.05,0.07,0.20,0.22
3.242,0.05,0.08,0.26,0.28
3.252,0.06,0.08,0.35,0.36
3.262,0.03,0.09,0.36,0.37
3.272,-0.02,0.08,0.32,0.34
3.282,-0.07,0.10,0.23,0.26
3.292,-0.08,0.13,0.15,0.21
3.302,-0.11,0.17,0.12,0.24
3.312,-0.14,0.15,0.10,0.23
3.322,-0.13,0.16,0.04,0.21
3.332,-0.12,0.18,0.01,0.22
3.342,-0.12,0.18,0.04,0.21
3.352,-0.16,0.15,0.07,0.23
3.362,-0.21,0.15,0.12,0.29
3.372,-0.22,0.15,0.15,0.31
3.382,-0.23,0.14,0.18,0.33
3.392,-0.20,0.12,0.18,0.29
3.402,-0.10,0.11,0.12,0.19
3.412,-0.06,0.12,0.10,0.17
3.422,-0.02,0.09,0.11,0.15
3.432,0.00,0.08,0.04,0.09
3.442,-0.05,0.10,-0.02,0.11
3.452,-0.11,0.11,-0.07,0.17
3.462,-0.10,0.10,-0.06,0.16
3.472,-0.16,0.12,0.02,0.20
3.482,-0.22,0.09,0.09,0.25
3.492,-0.22,0.06,0.13,0.26
3.503,-0.20,0.04,0.11,0.23
3.512,-0.17,0.05,0.08,0.19
3.523,-0.12,0.06,0.03,0.14
3.533,-0.10,0.09,-0.05,0.14
3.543,-0.06,0.10,-0.08,0.13
3.553,-0.07,0.08,-0.06,0.13
3.562,-0.10,0.11,-0.03,0.15
3.573,-0.13,0.10,-0.02,0.17
3.582,-0.19,0.11,0.06,0.23
3.592,-0.21,0.11,0.13,0.27
3.602,-0.15,0.13,0.16,0.26
3.613,-0.10,0.16,0.11,0.22
3.623,-0.07,0.15,0.05,0.17
3.633,-0.09,0.14,0.00,0.16
3.643,-0.07,0.11,0.02,0.14
3.652,-0.14,0.11,0.10,0.20
3.663,-0.15,0.11,0.15,0.24
3.673,-0.11,0.10,0.17,0.23
3.683,-0.06,0.10,0.19,0.22
3.693,-0.05,0.08,0.20,0.22
3.703,-0.05,0.12,0.17,0.21
3.713,-0.07,0.12,0.13,0.19
3.723,-0.11,0.12,0.12,0.20
3.733,-0.15,0.14,0.09,0.22
3.743,-0.12,0.12,0.08,0.19
3.753,-0.11,0.08,0.11,0.17
3.763,-0.12,0.07,0.14,0.20
3.773,-0.08,0.07,0.12,0.16
3.783,-0.10,0.09,0.10,0.16
3.793,-0.11,0.07,0.07,0.15
3.803,-0.13,0.06,0.07,0.16
3.813,-0.17,0.07,0.10,0.21
3.823,-0.17,0.09,0.07,0.20
3.833,-0.16,0.10,0.02,0.19
3.843,-0.17,0.11,0.01,0.20
3.853,-0.20,0.10,0.01,0.23
3.863,-0.17,0.07,0.05,0.19
3.873,-0.11,0.08,0.08,0.15
3.883,-0.17,0.04,0.16,0.23
3.893,-0.09,0.01,0.18,0.20
3.903,-0.08,0.05,0.17,0.19
3.913,-0.06,0.07,0.14,0.17
3.923,-0.06,0.07,0.06,0.11
3.933,-0.06,0.07,0.06,0.10
3.943,-0.07,0.06,0.10,0.14
3.953,-0.05,0.05,0.13,0.15
3.963,-0.04,0.07,0.13,0.16
3.973,-0.05,0.08,0.15,0.18
3.983,-0.04,0.05,0.16,0.17
3.992,-0.06,0.05,0.16,0.18
4.002,-0.09,0.07,0.12,0.17
4.012,-0.17,0.10,0.07,0.21
4.022,-0.14,0.11,0.00,0.18
4.032,-0.14,0.12,-0.01,0.18
4.042,-0.13,0.11,0.02,0.18
4.052,-0.14,0.10,0.05,0.18
4.062,-0.08,0.13,0.08,0.17
4.072,-0.04,0.13,0.07,0.15
4.082,-0.06,0.13,0.08,0.17
4.092,-0.08,0.14,0.09,0.18
4.101,-0.14,0.12,0.10,0.21
4.112,-0.19,0.11,0.14,0.26
4.122,-0.21,0.11,0.10,0.26
4.132,-0.22,0.12,0.02,0.25
4.142,-0.20,0.11,-0.02,0.23
4.152,-0.21,0.08,0.03,0.23
4.162,-0.18,0.04,0.15,0.24
4.172,-0.13,0.02,0.21,0.25
4.182,-0.06,0.03,0.19,0.20
4.192,-0.02,0.04,0.11,0.12
4.202,-0.00,0.03,0.05,0.06
4.212,-0.01,0.03,0.04,0.05
4.222,-0.06,0.03,0.08,0.10
4.232,-0.10,0.03,0.14,0.18
4.242,-0.15,0.06,0.17,0.23
4.252,-0.19,0.07,0.13,0.24
4.262,-0.24,0.07,0.10,0.27
4.272,-0.21,0.09,0.05,0.24
4.282,-0.20,0.11,0.01,0.23
4.292,-0.17,0.11,-0.01,0.20
4.302,-0.15,0.07,-0.01,0.17
4.312,-0.15,0.09,0.03,0.17
4.322,-0.18,0.08,0.12,0.23
4.332,-0.06,0.05,0.09,0.12
4.342,0.02,0.07,0.21,0.22
4.356,-0.01,0.06,0.26,0.27
4.365,-0.05,0.06,0.18,0.19
4.376,-0.05,0.08,0.13,0.16
4.386,-0.06,0.09,0.05,0.12
4.396,-0.07,0.08,-0.02,0.11
4.405,-0.10,0.06,-0.03,0.12
4.416,-0.11,0.07,-0.01,0.13
4.426,-0.09,0.05,0.02,0.11
4.436,-0.04,0.05,0.08,0.11
4.446,-0.06,0.08,0.08,0.12
4.456,-0.08,0.09,0.08,0.14
4.466,-0.11,0.12,0.04,0.17
4.476,-0.15,0.11,0.05,0.19
4.486,-0.21,0.08,0.12,0.26
4.496,-0.21,0.08,0.17,0.29
4.506,-0.20,0.07,0.15,0.26
4.516,-0.17,0.08,0.11,0.22
4.526,-0.12,0.09,0.06,0.16
4.536,-0.09,0.10,-0.01,0.13
4.546,-0.11,0.08,-0.01,0.14
4.556,-0.02,0.06,-0.03,0.07
4.566,-0.03,0.03,0.08,0.09
4.576,-0.14,0.03,0.15,0.21
4.586,-0.20,0.06,0.15,0.26
4.596,-0.18,0.08,0.14,0.24
4.606,-0.10,0.08,0.11,0.18
4.616,-0.10,0.07,0.08,0.14
4.626,-0.09,0.08,0.09,0.15
4.636,-0.09,0.06,0.09,0.14
4.646,-0.07,0.06,0.11,0.14
4.656,-0.08,0.07,0.07,0.13
4.666,-0.10,0.07,-0.02,0.12
4.676,-0.13,0.06,-0.00,0.14
4.686,-0.15,0.06,0.07,0.17
4.696,-0.17,0.05,0.12,0.21
4.706,-0.16,0.04,0.14,0.22
4.716,-0.15,0.05,0.14,0.21
4.726,-0.15,0.05,0.14,0.21
4.736,-0.16,0.04,0.08,0.18
4.746,-0.12,0.05,0.03,0.13
4.756,-0.10,0.06,0.03,0.12
4.766,-0.05,0.05,0.04,0.08
4.776,-0.06,0.04,0.03,0.08
4.786,-0.10,0.04,0.02,0.11
4.796,-0.11,0.03,0.04,0.12
4.806,-0.12,0.03,0.05,0.13
4.816,-0.16,0.06,0.04,0.18
4.826,-0.17,0.04,0.06,0.19
4.836,-0.18,0.04,0.08,0.20
4.846,-0.20,0.05,0.09,0.22
4.856,-0.18,0.07,0.06,0.21
4.866,-0.13,0.07,0.02,0.14
4.876,-0.03,0.07,-0.02,0.08
4.886,0.01,0.08,0.01,0.08
4.896,0.02,0.06,0.02,0.06
4.906,-0.03,0.06,0.06,0.09
4.916,-0.10,0.08,0.12,0.18
4.926,-0.14,0.09,0.18,0.25
4.936,-0.15,0.08,0.19,0.25
4.946,-0.17,0.08,0.13,0.22
4.956,-0.14,0.09,0.04,0.17
4.966,-0.10,0.09,-0.02,0.14
4.976,-0.10,0.09,-0.05,0.14
4.986,-0.11,0.06,-0.13,0.18
4.996,-0.17,0.07,-0.20,0.27
5.006,-0.19,0.05,-0.18,0.27
5.016,-0.18,0.01,-0.08,0.20
5.026,-0.14,-0.02,0.01,0.14
5.036,-0.08,-0.03,0.07,0.11
5.046,-0.08,0.01,0.12,0.15
5.056,-0.07,0.04,0.13,0.15
5.066,-0.10,0.03,0.12,0.16
5.076,-0.14,0.04,0.07,0.16
5.086,-0.15,0.07,0.02,0.17
5.096,-0.13,0.07,-0.00,0.15
5.106,-0.17,0.08,0.00,0.19
5.116,-0.21,0.08,0.01,0.23
5.126,-0.20,0.09,0.04,0.22
5.136,-0.18,0.08,0.07,0.21
5.146,-0.18,0.07,0.08,0.21
5.156,-0.15,0.05,0.06,0.17
5.166,-0.08,0.03,0.05,0.10
5.176,-0.04,0.00,0.10,0.11
5.186,-0.00,-0.01,0.11,0.11
5.196,0.05,-0.01,0.11,0.12
5.206,0.02,0.01,0.10,0.11
5.216,0.03,0.03,0.08,0.09
5.226,-0.04,0.06,0.00,0.07
5.236,-0.18,0.07,-0.08,0.21
5.246,-0.26,0.07,-0.08,0.29
5.256,-0.22,0.06,-0.08,0.24
5.266,-0.17,0.05,-0.04,0.18
5.276,-0.12,0.04,-0.03,0.13
5.286,-0.07,0.03,-0.01,0.08
5.296,-0.07,0.05,-0.03,0.10
5.306,-0.09,0.05,-0.06,0.12
5.316,-0.11,0.06,-0.06,0.14
5.326,-0.08,0.05,-0.01,0.10
5.336,-0.11,0.05,0.08,0.15
5.346,-0.10,0.06,0.12,0.17
5.356,-0.09,0.07,0.15,0.18
5.366,-0.06,0.06,0.18,0.19
5.376,-0.08,0.08,0.19,0.22
5.386,-0.11,0.08,0.17,0.21
5.396,-0.09,0.05,0.11,0.15
5.406,-0.09,0.04,0.07,0.12
5.416,-0.09,0.04,0.06,0.12
5.426,-0.08,0.03,0.05,0.10
5.436,-0.08,0.04,0.03,0.09
5.446,-0.08,0.04,0.05,0.10
5.456,-0.08,0.05,0.05,0.11
5.466,-0.08,0.05,0.05,0.10
5.476,-0.12,0.05,0.07,0.14
5.486,-0.16,0.06,0.08,0.19
5.496,-0.16,0.07,0.06,0.19
5.506,-0.13,0.06,0.07,0.16
5.516,-0.13,0.05,0.01,0.14
5.526,-0.12,0.05,-0.04,0.13
5.536,-0.13,0.04,-0.05,0.15
5.546,-0.14,0.03,-0.05,0.15
5.557,-0.15,0.05,-0.03,0.16
5.566,-0.18,0.06,0.00,0.19
5.576,-0.14,0.03,-0.00,0.14
5.586,-0.15,0.05,0.02,0.16
5.596,-0.12,0.05,0.02,0.13
5.606,-0.11,0.02,-0.00,0.11
5.616,-0.08,0.02,0.00,0.08
5.626,-0.06,0.03,0.02,0.07
5.636,-0.05,0.02,0.03,0.07
5.646,-0.09,0.00,0.08,0.12
5.656,-0.08,0.01,0.08,0.11
5.666,-0.10,0.01,0.07,0.12
5.676,-0.10,0.01,0.06,0.12
5.687,-0.08,0.01,0.00,0.08
5.696,-0.11,0.02,0.00,0.11
5.706,-0.11,0.01,-0.00,0.11
5.716,-0.08,0.01,-0.04,0.09
5.726,-0.08,0.01,-0.03,0.08
5.736,-0.08,0.01,-0.02,0.08
5.746,-0.08,0.03,-0.03,0.09
5.757,-0.10,0.04,-0.02,0.11
5.766,-0.14,0.03,0.01,0.14
5.777,-0.16,0.04,0.04,0.17
5.787,-0.22,0.03,-0.00,0.22
5.796,-0.26,0.05,-0.06,0.27
5.806,-0.26,0.06,-0.10,0.28
5.816,-0.21,0.04,-0.09,0.24
5.827,-0.14,0.03,-0.05,0.15
5.837,-0.03,0.03,0.02,0.05
5.847,0.03,0.00,0.04,0.05
5.857,0.05,0.00,0.00,0.05
5.867,-0.00,0.02,-0.01,0.02
5.877,-0.01,0.06,0.02,0.07
5.887,-0.04,0.05,0.03,0.07
5.897,-0.13,0.04,0.07,0.15
5.907,-0.17,0.07,0.12,0.22
5.917,-0.19,0.04,0.15,0.25
5.927,-0.13,0.06,0.10,0.17
5.937,-0.08,0.06,0.03,0.10
5.947,-0.05,0.07,-0.01,0.08
5.956,-0.02,0.05,-0.05,0.08
5.966,-0.00,0.04,-0.06,0.07
5.977,-0.07,0.02,-0.00,0.08
5.987,-0.12,0.02,0.10,0.16
5.997,-0.14,0.01,0.12,0.18
6.007,-0.10,0.01,0.12,0.16
6.017,-0.07,0.04,0.10,0.12
6.027,-0.06,0.04,0.09,0.12
6.037,-0.09,0.03,0.05,0.11
6.047,-0.10,0.06,-0.00,0.12
6.057,-0.13,0.06,-0.03,0.15
6.067,-0.11,0.06,-0.07,0.14
6.077,-0.12,0.03,-0.04,0.13
6.087,-0.14,0.00,0.05,0.15
6.097,-0.12,-0.01,0.02,0.13
6.107,-0.13,0.01,-0.02,0.13
6.117,-0.15,0.03,-0.05,0.16
6.127,-0.15,0.05,-0.09,0.18
6.137,-0.08,0.04,-0.10,0.13
6.147,-0.08,0.03,-0.04,0.09
6.157,-0.15,0.04,0.01,0.15
6.167,-0.16,0.03,0.06,0.18
6.177,-0.19,0.03,0.10,0.21
6.187,-0.22,0.01,0.07,0.23
6.197,-0.18,0.02,0.01,0.18
6.207,-0.11,0.01,-0.04,0.11
6.217,-0.03,-0.04,-0.06,0.08
6.227,-0.01,-0.03,-0.08,0.08
6.237,-0.00,-0.02,-0.06,0.06
6.247,-0.01,0.01,-0.03,0.04
6.257,-0.05,0.01,0.01,0.05
6.267,-0.07,0.03,0.04,0.08
6.277,-0.12,0.04,0.07,0.14
6.287,-0.13,0.06,0.09,0.17
6.297,-0.14,0.07,0.09,0.18
6.307,-0.11,0.08,0.05,0.14
6.317,-0.10,0.11,-0.02,0.15
6.327,-0.11,0.12,-0.07,0.18
6.337,-0.13,0.10,-0.07,0.18
6.347,-0.10,0.10,-0.06,0.16
6.357,-0.09,0.08,-0.00,0.12
6.367,-0.12,0.07,0.10,0.17
6.377,-0.22,0.08,0.15,0.27
6.387,-0.17,0.07,0.08,0.20
6.397,-0.14,0.08,-0.05,0.17
6.407,-0.18,0.08,-0.01,0.20
6.417,-0.12,0.05,-0.09,0.16
6.427,-0.05,0.06,-0.08,0.11
6.437,-0.08,0.05,0.01,0.09
6.447,-0.05,0.02,0.01,0.06
6.457,-0.06,-0.01,0.03,0.07
6.467,-0.11,0.02,0.06,0.13
6.477,-0.16,0.03,0.01,0.17
6.487,-0.11,0.04,-0.02,0.12
6.497,-0.07,0.05,-0.04,0.10
6.507,-0.04,0.03,-0.04,0.07
6.517,-0.07,0.05,-0.02,0.09
6.527,-0.11,0.04,0.02,0.12
6.537,-0.08,0.03,0.04,0.10
6.547,-0.13,0.01,0.06,0.14
6.557,-0.15,0.03,0.03,0.16
6.567,-0.16,0.06,-0.05,0.18
6.577,-0.15,0.06,-0.08,0.18
6.587,-0.11,0.02,-0.02,0.11
6.597,-0.09,-0.00,0.06,0.10
6.607,0.00,-0.00,0.13,0.13
6.617,0.03,0.02,0.12,0.13
6.627,0.04,0.05,0.09,0.11
6.637,0.02,0.04,0.05,0.07
6.647,-0.03,0.07,0.02,0.08
6.657,-0.08,0.08,0.04,0.12
6.667,-0.14,0.08,0.06,0.17
6.677,-0.27,0.11,0.06,0.30
6.687,-0.31,0.12,0.07,0.34
6.697,-0.27,0.10,0.12,0.31
6.707,-0.19,0.09,0.08,0.22
6.717,-0.11,0.04,-0.00,0.11
6.727,-0.07,0.03,-0.05,0.09
6.737,-0.10,0.04,-0.05,0.12
6.747,-0.08,-0.00,-0.05,0.10
6.757,-0.08,-0.03,0.02,0.09
6.767,-0.13,-0.05,0.13,0.20
6.777,-0.09,-0.04,0.19,0.21
6.787,-0.08,-0.01,0.18,0.20
6.797,-0.10,0.02,0.12,0.16
6.807,-0.12,0.02,0.04,0.13
6.817,-0.12,0.01,0.03,0.13
6.827,-0.19,0.02,0.11,0.22
6.837,-0.13,-0.00,0.00,0.13
6.847,-0.02,0.04,-0.08,0.09
6.857,-0.06,0.05,-0.04,0.09
6.867,-0.16,0.02,-0.03,0.17
6.877,-0.17,0.02,0.02,0.17
6.887,-0.14,0.03,0.09,0.17
6.897,-0.05,0.02,0.12,0.13
6.907,-0.04,0.04,0.13,0.14
6.917,-0.05,0.06,0.04,0.09
6.927,-0.02,0.08,-0.02,0.09
6.937,-0.08,0.07,-0.03,0.11
6.947,-0.07,0.05,-0.01,0.08
6.957,-0.03,0.06,0.03,0.07
6.967,-0.06,0.03,0.08,0.10
6.977,-0.07,0.02,0.11,0.14
6.987,-0.08,0.01,0.07,0.11
6.997,-0.07,0.02,-0.02,0.08
7.007,-0.02,0.05,-0.06,0.08
7.017,-0.05,0.04,-0.05,0.08
7.027,-0.08,0.00,-0.02,0.08
7.037,-0.10,-0.04,0.02,0.11
7.047,-0.09,-0.03,0.01,0.10
7.057,-0.10,-0.01,-0.01,0.10
7.067,-0.12,0.03,-0.03,0.12
7.077,-0.06,0.08,-0.06,0.12
7.087,-0.05,0.14,-0.10,0.18
7.097,-0.11,0.12,-0.00,0.17
7.107,-0.18,0.10,0.10,0.23
7.118,-0.20,0.09,0.15,0.26
7.128,-0.18,0.09,0.17,0.27
7.137,-0.10,0.11,0.15,0.21
7.147,-0.04,0.11,0.06,0.13
7.157,-0.03,0.11,0.02,0.11
7.168,-0.02,0.09,0.02,0.09
7.177,-0.07,0.06,0.05,0.11
7.188,-0.13,0.05,0.03,0.15
7.198,-0.09,0.09,-0.06,0.14
7.207,-0.05,0.12,-0.15,0.20
7.218,-0.07,0.14,-0.18,0.24
7.227,-0.08,0.12,-0.13,0.19
7.238,-0.14,0.07,-0.07,0.17
7.247,-0.21,0.03,-0.03,0.22
7.258,-0.24,0.03,-0.03,0.24
7.268,-0.15,0.04,-0.12,0.19
7.277,-0.08,0.03,-0.19,0.21
7.288,-0.05,0.00,-0.17,0.17
7.298,-0.11,-0.03,-0.09,0.15
7.308,-0.23,-0.06,0.02,0.24
7.318,-0.27,-0.04,0.09,0.29
7.328,-0.19,0.01,0.10,0.22
7.338,-0.07,-0.00,0.03,0.08
7.348,0.05,-0.05,-0.01,0.07
7.358,0.10,-0.04,0.02,0.11
7.368,0.08,-0.02,0.07,0.10
7.378,0.03,-0.01,0.11,0.12
7.388,-0.06,0.01,0.09,0.10
7.398,-0.17,0.02,0.04,0.18
7.408,-0.23,0.07,-0.04,0.24
7.418,-0.19,0.11,-0.12,0.25
7.428,-0.12,0.15,-0.13,0.23
7.438,-0.11,0.10,-0.14,0.21
7.448,-0.13,0.01,-0.14,0.19
7.458,-0.12,-0.03,-0.08,0.15
7.468,-0.15,-0.03,-0.07,0.16
7.478,-0.24,-0.04,-0.08,0.26
7.488,-0.16,-0.07,0.16,0.24
7.498,-0.12,-0.05,0.22,0.26
7.508,-0.04,0.01,0.10,0.11
7.518,-0.01,0.05,-0.01,0.05
7.528,-0.03,0.04,-0.11,0.12
7.538,-0.09,0.02,-0.11,0.14
7.548,-0.14,0.00,-0.10,0.17
7.558,-0.17,0.02,-0.06,0.18
7.568,-0.21,0.03,-0.04,0.22
7.578,-0.12,0.05,-0.04,0.14
7.588,-0.08,0.05,-0.01,0.09
7.598,-0.10,0.01,-0.09,0.13
7.608,-0.17,-0.04,-0.01,0.18
7.618,-0.24,-0.06,0.20,0.31
7.628,-0.16,-0.04,0.20,0.26
7.638,-0.11,0.02,0.01,0.11
7.648,-0.16,0.03,-0.14,0.21
7.658,-0.15,-0.01,-0.14,0.20
7.668,-0.13,-0.04,-0.05,0.15
7.678,-0.11,-0.04,0.07,0.14
7.688,-0.11,-0.02,0.18,0.22
7.698,-0.08,-0.00,0.20,0.21
7.708,-0.06,0.01,0.10,0.12
7.718,-0.05,0.02,0.04,0.06
7.728,-0.11,0.02,0.04,0.12
7.738,-0.17,-0.02,0.04,0.18
7.748,-0.14,-0.01,0.01,0.14
7.758,-0.08,0.05,-0.01,0.09
7.768,-0.01,0.10,-0.06,0.11
7.778,-0.05,0.08,-0.07,0.12
7.788,-0.12,0.05,-0.06,0.15
7.798,-0.20,0.03,-0.00,0.20
7.808,-0.23,0.00,0.06,0.24
7.818,-0.17,0.01,0.05,0.18
7.828,-0.15,0.06,0.00,0.16
7.838,-0.15,0.03,-0.01,0.16
7.848,-0.16,-0.01,0.02,0.16
7.858,-0.13,-0.01,0.06,0.14
7.868,-0.09,0.00,0.10,0.14
7.878,-0.08,0.01,0.09,0.12
7.888,-0.10,0.03,0.03,0.11
7.898,-0.01,0.04,-0.01,0.05
7.908,-0.02,0.06,-0.06,0.08
7.918,-0.03,0.03,-0.07,0.08
7.928,-0.11,0.01,-0.04,0.11
7.938,-0.16,0.01,-0.00,0.16
7.948,-0.16,0.01,0.01,0.16
7.958,-0.21,-0.01,-0.02,0.21
7.968,-0.21,0.02,-0.05,0.22
7.978,-0.19,0.04,-0.13,0.23
7.984,-0.10,0.03,-0.16,0.19
7.994,-0.00,-0.01,-0.10,0.10
8.004,-0.01,-0.04,0.02,0.05
8.014,-0.02,-0.05,0.10,0.11
8.024,0.02,-0.03,0.16,0.16
8.034,-0.03,-0.02,0.17,0.18
8.045,-0.11,0.01,0.12,0.17
8.054,-0.15,0.01,0.05,0.16
8.064,-0.14,0.02,-0.01,0.15
8.075,-0.13,0.03,-0.09,0.16
8.084,-0.15,0.03,-0.12,0.20
8.095,-0.16,0.04,-0.06,0.18
8.105,-0.16,0.03,-0.03,0.17
8.115,-0.17,0.01,0.00,0.17
8.125,-0.15,0.04,0.05,0.17
8.135,-0.09,0.03,0.03,0.10
8.144,-0.04,0.05,-0.01,0.07
8.155,-0.06,0.05,0.00,0.07
8.165,-0.09,0.00,0.01,0.09
8.174,-0.08,0.02,0.04,0.09
8.184,-0.08,-0.01,0.11,0.13
8.195,-0.12,-0.02,0.16,0.20
8.205,-0.16,0.01,0.09,0.18
8.215,-0.09,0.03,-0.06,0.11
8.224,-0.12,0.03,-0.04,0.13
8.235,-0.19,-0.01,0.04,0.19
8.244,-0.18,-0.02,0.04,0.19
8.255,-0.16,-0.01,-0.02,0.17
8.265,-0.14,-0.01,-0.08,0.16
8.275,-0.13,-0.01,-0.11,0.17
8.285,-0.11,-0.00,-0.12,0.16
8.295,-0.03,-0.01,-0.12,0.13
8.304,-0.06,-0.03,-0.05,0.08
8.315,-0.11,-0.04,0.07,0.14
8.325,-0.13,-0.03,0.14,0.20
8.335,-0.12,0.00,0.13,0.17
8.345,-0.07,0.02,0.03,0.08
8.355,-0.00,0.01,-0.08,0.08
8.365,0.05,-0.02,-0.12,0.13
8.375,0.06,-0.03,-0.11,0.13
8.385,0.01,-0.03,-0.06,0.07
8.395,-0.01,-0.01,-0.05,0.05
8.405,-0.04,-0.01,-0.08,0.09
8.415,-0.05,-0.03,-0.08,0.10
8.425,-0.04,-0.02,-0.06,0.07
8.435,-0.07,0.02,-0.04,0.09
8.445,-0.16,0.03,0.02,0.17
8.455,-0.24,0.02,0.07,0.25
8.465,-0.25,0.04,0.07,0.26
8.475,-0.17,0.05,0.04,0.18
8.485,-0.13,0.04,0.03,0.13
8.495,-0.05,0.04,-0.01,0.06
8.505,-0.00,0.03,-0.07,0.07
8.515,-0.03,0.01,-0.07,0.08
8.525,-0.07,-0.01,-0.05,0.09
8.535,-0.11,-0.04,-0.01,0.12
8.545,-0.20,-0.04,0.04,0.21
8.555,-0.19,-0.06,0.06,0.21
8.565,-0.23,-0.05,0.12,0.26
8.575,-0.21,-0.02,0.10,0.23
8.585,-0.14,-0.02,0.00,0.14
8.595,-0.10,0.01,-0.08,0.13
8.605,-0.03,0.02,-0.14,0.14
8.615,-0.15,-0.01,-0.06,0.16
8.625,-0.17,-0.04,-0.00,0.18
8.635,-0.09,-0.02,-0.02,0.09
8.645,-0.11,0.01,-0.07,0.13
8.655,-0.11,0.02,-0.11,0.16
8.665,-0.14,-0.00,-0.12,0.18
8.675,-0.20,-0.02,-0.07,0.22
8.685,-0.21,-0.05,-0.00,0.21
8.695,-0.16,-0.06,0.05,0.18
8.705,-0.09,-0.09,0.05,0.13
8.715,-0.02,-0.11,0.01,0.11
8.725,0.07,-0.10,-0.03,0.12
8.735,0.06,-0.06,-0.05,0.11
8.745,0.01,-0.05,-0.11,0.12
8.755,0.00,-0.03,-0.15,0.15
8.765,-0.10,0.00,-0.12,0.16
8.775,-0.18,0.03,-0.03,0.18
8.785,-0.21,0.02,0.05,0.22
8.795,-0.22,0.01,0.11,0.25
8.805,-0.24,0.00,0.12,0.27
8.815,-0.23,-0.01,0.07,0.25
8.825,-0.16,-0.02,0.00,0.16
8.835,-0.14,-0.03,-0.06,0.16
8.845,-0.13,-0.04,-0.05,0.14
8.855,-0.09,-0.06,0.00,0.11
8.865,-0.06,-0.05,0.05,0.09
8.875,-0.04,-0.03,0.08,0.09
8.885,-0.06,-0.04,0.02,0.08
8.895,-0.07,-0.01,-0.03,0.08
8.905,-0.08,-0.04,-0.05,0.10
8.915,-0.12,-0.01,0.04,0.12
8.925,-0.12,-0.01,0.07,0.14
8.935,-0.04,-0.01,0.01,0.05
8.945,-0.06,0.02,-0.01,0.06
8.955,-0.08,0.03,-0.03,0.09
8.965,-0.09,0.05,-0.04,0.11
8.975,-0.09,0.05,-0.05,0.12
8.985,-0.07,0.03,-0.03,0.08
8.995,-0.04,0.04,-0.02,0.06
9.005,-0.02,0.05,-0.09,0.10
9.015,-0.05,0.03,-0.12,0.13
9.025,-0.09,0.01,-0.00,0.09
9.035,-0.14,0.04,0.01,0.15
9.045,-0.17,0.05,0.04,0.18
9.055,-0.18,0.02,0.05,0.19
9.065,-0.16,0.01,0.00,0.16
9.075,-0.12,0.02,-0.02,0.12
9.085,-0.11,-0.02,-0.01,0.11
9.095,-0.08,-0.07,0.00,0.11
9.105,-0.07,-0.07,0.03,0.11
9.115,-0.07,-0.09,0.02,0.11
9.125,-0.03,-0.12,0.01,0.12
9.135,-0.07,-0.11,0.04,0.13
9.145,-0.13,-0.10,0.03,0.17
9.155,-0.14,-0.09,0.01,0.16
9.165,-0.10,-0.09,-0.03,0.14
9.175,-0.07,-0.09,-0.10,0.15
9.185,-0.08,-0.09,-0.15,0.20
9.195,-0.11,-0.09,-0.16,0.21
9.205,-0.15,-0.10,-0.08,0.20
9.215,-0.16,-0.08,-0.03,0.18
9.225,-0.20,-0.07,-0.02,0.21
9.235,-0.24,-0.05,0.00,0.24
9.245,-0.21,-0.04,-0.02,0.21
9.255,-0.21,-0.04,-0.06,0.22
9.265,-0.19,-0.04,-0.08,0.21
9.275,-0.12,-0.04,-0.10,0.16
9.285,-0.08,-0.02,-0.10,0.13
9.295,-0.04,0.00,-0.08,0.09
9.305,-0.04,0.01,-0.04,0.06
9.315,-0.07,0.03,0.02,0.08
9.325,-0.05,0.03,0.02,0.07
9.335,-0.06,0.04,0.12,0.14
9.345,-0.12,0.01,0.16,0.20
9.355,-0.16,0.00,0.11,0.19
9.365,-0.14,0.03,0.06,0.16
9.375,-0.12,0.07,0.03,0.14
9.385,-0.11,0.08,0.01,0.14
9.395,-0.10,0.06,0.02,0.12
9.405,-0.07,0.04,0.08,0.11
9.415,-0.02,0.01,0.11,0.12
9.425,-0.02,-0.01,0.09,0.10
9.435,-0.01,-0.00,0.07,0.08
9.445,-0.00,0.02,0.08,0.08
9.455,-0.00,0.03,0.02,0.04
9.465,-0.01,0.08,0.11,0.13
9.475,-0.07,0.09,0.12,0.16
9.485,-0.12,0.08,0.10,0.18
9.495,-0.10,0.10,0.13,0.19
9.505,-0.11,0.13,0.17,0.24
9.515,-0.14,0.13,0.14,0.23
9.525,-0.16,0.14,0.14,0.25
9.535,-0.19,0.15,0.09,0.25
9.545,-0.11,0.14,-0.01,0.18
9.555,-0.05,0.14,-0.06,0.16
9.565,-0.05,0.09,-0.03,0.11
9.575,-0.01,0.04,0.00,0.04
9.585,-0.03,0.02,0.04,0.05
9.595,-0.03,0.02,0.06,0.07
9.605,-0.06,0.02,0.07,0.10
9.615,-0.11,0.01,0.04,0.12
9.625,-0.16,-0.01,0.05,0.17
9.636,-0.16,-0.01,-0.02,0.17
9.645,-0.16,-0.02,-0.09,0.19
9.655,-0.16,-0.02,-0.12,0.20
9.665,-0.10,0.01,-0.14,0.17
9.675,-0.04,0.02,-0.17,0.18
9.685,-0.06,0.03,-0.17,0.18
9.696,-0.11,0.03,-0.12,0.17
9.706,-0.17,0.05,-0.07,0.20
9.715,-0.23,0.05,-0.04,0.24
9.725,-0.28,0.05,-0.05,0.29
9.735,-0.22,0.04,-0.05,0.23
9.745,-0.21,0.04,0.01,0.21
9.756,-0.18,0.05,0.07,0.20
9.766,-0.10,0.04,0.07,0.13
9.776,-0.05,0.03,0.06,0.08
9.786,-0.05,0.02,0.04,0.07
9.796,-0.02,-0.01,0.03,0.03
9.806,0.01,-0.01,-0.01,0.02
9.816,0.02,0.01,-0.02,0.03
9.826,-0.02,-0.01,-0.03,0.03
9.836,-0.05,0.00,-0.04,0.07
9.846,-0.09,0.04,-0.07,0.12
9.856,-0.09,0.07,-0.09,0.14
9.866,-0.08,0.08,-0.08,0.14
9.876,-0.05,0.06,0.01,0.08
9.886,-0.06,0.06,0.07,0.11
9.896,-0.07,0.04,0.04,0.09
9.906,-0.11,0.07,-0.06,0.14
9.916,-0.16,0.05,-0.11,0.20
9.926,-0.17,0.03,-0.09,0.19
9.936,-0.17,0.02,-0.06,0.18
9.946,-0.11,0.03,-0.07,0.13
9.956,-0.07,0.03,-0.09,0.11
9.966,-0.09,0.02,-0.04,0.10
9.976,-0.12,0.04,0.01,0.12
9.986,-0.12,0.08,-0.03,0.14
9.996,-0.12,0.08,-0.07,0.16
10.006,-0.12,0.06,-0.04,0.14
10.016,-0.07,0.06,-0.01,0.09
10.026,-0.05,0.03,0.07,0.09
10.036,-0.07,0.04,0.14,0.16
10.046,-0.11,0.04,0.13,0.17
10.056,-0.14,0.05,0.05,0.15
10.066,-0.19,0.04,0.04,0.20
10.076,-0.22,0.03,0.11,0.25
10.086,-0.26,-0.01,0.13,0.29
10.096,-0.25,-0.00,0.07,0.26
10.106,-0.19,0.03,0.00,0.20
10.116,-0.14,0.07,-0.08,0.18
10.126,-0.12,0.04,-0.14,0.19
10.136,-0.02,-0.03,-0.09,0.10
10.146,0.05,-0.06,-0.01,0.08
10.156,0.09,-0.07,0.03,0.12
10.166,0.08,-0.05,0.04,0.10
10.176,0.00,-0.06,-0.01,0.06
10.186,-0.07,-0.04,-0.05,0.09
10.196,-0.15,0.01,-0.07,0.17
10.206,-0.14,-0.01,-0.12,0.18
10.216,-0.11,-0.01,-0.11,0.16
10.226,-0.14,-0.00,-0.08,0.16
10.236,-0.15,0.01,-0.04,0.15
10.246,-0.11,0.02,-0.02,0.11
10.256,-0.09,-0.01,-0.02,0.09
10.266,-0.11,-0.01,-0.04,0.12
10.276,-0.10,0.00,-0.03,0.10
10.286,-0.09,-0.00,-0.03,0.10
10.296,-0.11,-0.03,0.03,0.12
10.306,-0.11,-0.04,0.10,0.15
10.316,-0.09,-0.05,0.11,0.15
10.326,-0.06,-0.02,0.11,0.12
10.336,-0.08,0.04,0.11,0.14
10.346,-0.07,0.03,0.06,0.10
10.356,-0.12,0.01,0.01,0.12
10.366,-0.14,-0.02,0.03,0.15
10.376,-0.15,-0.04,-0.00,0.16
10.386,-0.18,-0.05,-0.05,0.19
10.396,-0.18,-0.08,-0.07,0.21
10.406,-0.13,-0.06,-0.08,0.17
10.416,-0.08,-0.06,-0.11,0.15
10.426,-0.09,-0.03,-0.11,0.14
10.436,-0.13,-0.02,-0.04,0.14
10.446,-0.18,-0.01,0.01,0.18
10.456,-0.20,0.02,0.05,0.21
10.466,-0.19,0.05,0.03,0.20
10.476,-0.10,0.06,-0.00,0.12
10.486,-0.05,0.06,0.00,0.08
10.496,0.00,0.03,0.04,0.05
10.506,0.04,0.05,0.08,0.11
10.516,0.02,0.02,0.11,0.11
10.526,-0.06,0.01,0.12,0.14
10.536,-0.11,0.05,0.08,0.15
10.546,-0.10,0.05,0.04,0.12
10.556,-0.03,0.06,-0.00,0.07
10.566,-0.00,0.06,-0.04,0.07
10.576,-0.07,0.02,-0.02,0.07
10.586,-0.09,0.01,0.01,0.09
10.596,-0.06,0.02,0.03,0.07
10.606,-0.05,0.05,0.04,0.08
10.616,-0.07,0.03,0.07,0.10
10.626,-0.09,0.03,0.08,0.13
10.636,-0.05,0.04,0.10,0.12
10.646,-0.01,0.04,0.07,0.08
10.656,0.00,0.02,0.03,0.04
10.666,0.01,0.03,0.01,0.03
10.676,-0.03,0.05,0.03,0.06
10.686,-0.07,0.04,0.01,0.08
10.696,-0.12,0.02,-0.00,0.12
10.706,-0.17,0.02,0.01,0.17
10.716,-0.19,0.04,0.01,0.19
10.726,-0.15,0.07,-0.05,0.17
10.736,-0.14,0.08,-0.09,0.18
10.746,-0.13,0.08,-0.07,0.17
10.756,-0.13,0.10,-0.02,0.16
10.766,-0.16,0.08,0.04,0.18
10.776,-0.16,0.09,0.06,0.19
10.786,-0.17,0.09,0.01,0.19
10.796,-0.12,0.10,-0.09,0.18
10.806,-0.09,0.10,-0.11,0.17
10.816,-0.12,0.09,-0.12,0.19
10.826,-0.10,0.03,-0.14,0.17
10.836,-0.08,0.04,-0.17,0.20
10.846,-0.13,0.02,-0.20,0.24
10.856,-0.16,0.01,-0.18,0.24
10.866,-0.15,-0.01,-0.10,0.18
10.876,-0.11,-0.05,-0.08,0.15
10.886,-0.06,-0.03,-0.11,0.13
10.896,-0.01,-0.01,-0.15,0.15
10.906,0.06,-0.01,-0.14,0.15
10.916,0.04,0.02,-0.13,0.14
10.926,-0.01,0.03,-0.10,0.11
10.936,-0.10,0.05,-0.03,0.11
10.946,-0.18,0.06,0.05,0.20
10.956,-0.26,0.06,0.04,0.27
10.966,-0.29,0.06,0.02,0.30
10.976,-0.25,0.07,-0.01,0.26
10.986,-0.21,0.06,-0.05,0.22
10.996,-0.14,0.03,-0.09,0.17
11.006,-0.06,0.02,-0.12,0.13
11.016,-0.00,0.01,-0.05,0.05
11.026,-0.03,-0.02,0.01,0.04
11.036,-0.02,-0.04,0.03,0.06
11.046,-0.04,-0.05,0.04,0.07
11.056,-0.07,-0.01,0.02,0.07
11.066,-0.09,-0.01,-0.00,0.09
11.076,-0.16,0.02,-0.02,0.16
11.086,-0.18,0.03,0.00,0.18
11.096,-0.12,0.01,-0.02,0.12
11.106,-0.15,0.02,-0.03,0.16
11.116,-0.12,0.03,-0.08,0.14
11.126,-0.08,0.02,-0.10,0.13
11.137,-0.04,0.00,-0.11,0.12
11.146,0.00,0.00,-0.11,0.11
11.157,-0.02,0.02,-0.05,0.06
11.167,-0.09,-0.01,0.04,0.09
11.176,-0.16,-0.03,0.09,0.18
11.186,-0.17,-0.02,0.08,0.18
11.197,-0.10,0.01,0.07,0.12
11.207,-0.12,-0.01,0.07,0.14
11.217,-0.12,-0.03,0.06,0.14
11.227,-0.09,-0.03,0.05,0.10
11.237,-0.09,-0.04,0.06,0.12
11.247,-0.07,-0.05,0.06,0.11
11.257,-0.02,-0.05,0.04,0.07
11.267,-0.01,-0.07,0.08,0.11
11.277,0.01,-0.10,0.14,0.17
11.287,-0.00,-0.10,0.15,0.18
11.297,-0.03,-0.08,0.12,0.14
11.307,-0.03,-0.04,0.02,0.05
11.317,-0.07,-0.00,-0.08,0.10
11.327,-0.12,-0.02,-0.12,0.17
11.337,-0.16,-0.00,-0.11,0.19
11.347,-0.19,0.01,-0.07,0.20
11.357,-0.22,0.04,-0.02,0.22
11.367,-0.23,0.05,-0.03,0.23
11.377,-0.23,0.06,-0.05,0.24
11.387,-0.23,0.05,-0.06,0.25
11.397,-0.17,0.05,-0.07,0.19
11.407,-0.11,0.04,-0.07,0.14
11.417,-0.05,0.01,-0.06,0.08
11.427,0.00,-0.01,-0.05,0.05
11.437,-0.00,-0.03,-0.07,0.08
11.447,-0.05,-0.02,-0.05,0.08
11.457,-0.09,-0.02,-0.04,0.10
11.467,-0.12,-0.00,-0.01,0.12
11.477,-0.10,0.02,0.02,0.11
11.487,-0.09,0.01,0.00,0.09
11.497,-0.07,-0.00,-0.08,0.10
11.507,-0.09,0.01,-0.12,0.15
11.517,-0.07,0.02,-0.14,0.16
11.527,-0.12,0.00,-0.17,0.21
11.537,-0.18,0.01,-0.17,0.25
11.547,-0.19,-0.00,-0.16,0.25
11.557,-0.22,-0.01,-0.08,0.24
11.567,-0.21,-0.04,0.01,0.21
11.577,-0.15,-0.06,0.08,0.18
11.587,-0.06,-0.09,0.09,0.14
11.597,0.01,-0.09,0.04,0.10
11.607,0.03,-0.07,0.01,0.07
11.617,0.03,-0.07,0.01,0.07
11.627,-0.03,-0.05,-0.04,0.07
11.637,-0.08,-0.05,-0.09,0.13
11.647,-0.15,-0.03,-0.10,0.18
11.657,-0.23,-0.01,-0.09,0.24
11.667,-0.29,0.01,-0.05,0.30
11.677,-0.32,0.03,-0.02,0.33
11.687,-0.28,0.06,-0.08,0.29
11.697,-0.17,0.05,-0.15,0.23
11.707,-0.11,0.03,-0.15,0.19
11.717,-0.03,0.00,-0.09,0.10
11.727,0.02,-0.01,-0.03,0.04
11.737,0.02,-0.03,0.02,0.04
11.747,0.01,-0.05,0.05,0.07
11.757,-0.02,-0.02,0.01,0.03
11.767,-0.07,0.00,0.01,0.07
11.777,-0.08,0.02,-0.04,0.09
11.787,-0.11,0.03,-0.08,0.13
11.797,-0.12,0.03,-0.05,0.13
11.807,-0.09,0.02,-0.06,0.11
11.817,-0.13,0.04,-0.06,0.15
11.827,-0.16,0.02,-0.03,0.16
11.837,-0.18,0.02,-0.14,0.23
11.847,-0.13,0.05,-0.11,0.17
11.857,-0.11,0.05,-0.08,0.15
11.867,-0.01,0.05,-0.04,0.06
11.877,-0.04,0.04,-0.04,0.07
11.887,-0.11,0.04,0.03,0.12
11.897,-0.11,0.06,0.03,0.13
11.907,-0.09,0.06,-0.03,0.11
11.917,-0.16,0.04,-0.01,0.17
11.927,-0.19,0.03,0.02,0.19
11.937,-0.16,0.03,-0.01,0.16
11.947,-0.09,0.03,-0.05,0.11
11.957,-0.02,0.03,-0.04,0.05
11.967,0.01,-0.01,-0.04,0.05
11.977,-0.02,-0.04,-0.02,0.05
11.988,-0.07,-0.03,-0.02,0.08
11.997,-0.09,-0.04,-0.04,0.11
12.007,-0.08,-0.03,-0.05,0.10
12.017,-0.07,-0.05,-0.07,0.11
12.027,-0.10,-0.02,-0.03,0.11
12.037,-0.09,-0.00,-0.01,0.09
12.047,-0.10,-0.01,0.02,0.11
12.057,-0.14,-0.01,0.03,0.14
12.067,-0.20,-0.01,0.01,0.20
12.077,-0.18,0.00,-0.02,0.18
12.087,-0.15,0.02,-0.04,0.16
12.097,-0.15,0.02,-0.07,0.16
12.107,-0.12,0.02,-0.08,0.15
12.117,-0.09,0.00,-0.07,0.11
12.127,-0.07,-0.01,-0.04,0.08
12.137,-0.03,-0.01,-0.04,0.05
12.147,-0.01,-0.00,-0.05,0.05
12.157,-0.02,-0.00,-0.06,0.06
12.167,-0.08,0.03,-0.02,0.09
12.177,-0.10,0.01,0.01,0.10
12.187,-0.15,0.01,0.04,0.15
12.197,-0.17,0.03,0.01,0.17
12.207,-0.19,0.04,0.04,0.20
12.217,-0.15,0.02,0.05,0.16
12.227,-0.11,0.03,0.02,0.12
12.237,-0.08,0.05,-0.06,0.11
12.247,-0.11,0.06,-0.13,0.18
12.257,-0.13,0.02,-0.12,0.18
12.267,-0.12,-0.01,-0.04,0.13
12.277,-0.10,-0.05,0.05,0.12
12.287,-0.10,-0.06,0.08,0.15
12.297,-0.06,-0.07,0.09,0.13
12.307,0.03,-0.04,0.08,0.10
12.317,0.03,-0.03,0.07,0.08
12.327,0.01,0.00,0.05,0.05
12.337,-0.03,0.00,0.04,0.05
12.347,-0.09,-0.01,0.02,0.10
12.359,-0.16,0.03,0.01,0.16
12.369,-0.22,0.03,-0.01,0.22
12.378,-0.23,0.05,-0.00,0.24
12.389,-0.18,0.07,-0.06,0.20
12.399,-0.10,0.09,-0.15,0.20
12.409,-0.05,0.10,-0.15,0.19
12.419,0.01,0.05,-0.21,0.21
12.429,-0.00,-0.02,-0.07,0.08
12.439,0.01,-0.01,0.07,0.07
12.449,0.01,-0.02,0.13,0.14
12.459,0.03,0.01,0.17,0.17
12.469,0.01,0.05,0.15,0.16
12.479,-0.08,0.05,0.13,0.16
12.489,-0.12,0.06,0.08,0.15
12.499,-0.16,0.04,0.07,0.18
12.509,-0.25,-0.02,0.04,0.26
12.519,-0.29,-0.13,-0.03,0.32
12.529,-0.30,-0.12,-0.06,0.33
12.539,-0.22,-0.12,-0.10,0.27
12.549,-0.05,0.01,-0.05,0.07
12.559,-0.00,0.01,-0.07,0.08
12.569,-0.03,-0.06,-0.07,0.10
12.579,-0.17,-0.09,-0.17,0.26
12.589,-0.16,-0.12,-0.32,0.38
12.599,-0.15,-0.06,-0.30,0.34
12.609,-0.19,-0.04,-0.16,0.25
12.619,-0.17,-0.04,-0.03,0.18
12.629,-0.17,0.00,0.04,0.17
12.639,-0.19,-0.01,0.05,0.20
12.649,-0.19,-0.01,0.02,0.19
12.659,-0.13,-0.00,-0.06,0.15
12.669,-0.10,0.01,-0.07,0.12
12.679,-0.07,0.07,-0.00,0.10
12.689,-0.03,0.12,0.08,0.15
12.699,-0.04,0.12,0.07,0.14
12.709,-0.07,0.09,0.01,0.12
12.719,-0.08,0.10,0.01,0.12
12.729,-0.08,0.11,0.06,0.15
12.739,-0.05,0.09,0.05,0.12
12.749,-0.01,0.03,-0.03,0.04
12.759,0.00,0.02,-0.01,0.03
12.769,-0.00,0.04,-0.04,0.06
12.779,0.06,0.05,-0.06,0.10
12.789,0.03,0.04,-0.05,0.07
12.799,-0.09,0.01,0.00,0.09
12.809,-0.14,-0.03,0.05,0.15
12.819,-0.19,-0.01,0.05,0.20
12.829,-0.23,-0.03,0.00,0.23
12.839,-0.23,-0.02,-0.10,0.25
12.849,-0.18,0.02,-0.09,0.20
12.859,-0.09,0.04,-0.03,0.11
12.869,-0.06,0.02,0.04,0.08
12.879,-0.06,-0.01,0.09,0.11
12.889,-0.08,-0.03,0.08,0.12
12.899,-0.10,-0.04,0.01,0.11
12.909,-0.08,-0.02,-0.07,0.11
12.919,-0.08,0.02,-0.15,0.17
12.929,-0.08,0.04,-0.12,0.15
12.939,-0.07,0.02,-0.07,0.11
12.949,-0.05,0.02,-0.02,0.06
12.959,-0.06,0.00,0.04,0.07
12.969,-0.05,-0.06,0.07,0.11
12.979,-0.07,-0.07,0.03,0.11
12.989,-0.06,-0.04,-0.01,0.07
12.999,-0.08,-0.00,-0.07,0.10
13.009,-0.16,-0.01,-0.12,0.20
13.019,-0.20,-0.05,-0.10,0.23
13.029,-0.19,-0.08,-0.03,0.20
13.039,-0.14,-0.10,-0.00,0.17
13.049,-0.09,-0.12,-0.03,0.15
13.059,-0.03,-0.11,-0.04,0.12
13.069,-0.02,-0.08,-0.03,0.09
13.079,-0.06,-0.04,0.02,0.08
13.089,-0.10,-0.05,0.06,0.12
13.099,-0.15,-0.03,0.05,0.16
13.109,-0.21,0.01,0.02,0.21
13.119,-0.20,0.05,-0.01,0.20
13.129,-0.13,0.07,-0.04,0.15
13.139,-0.12,0.06,-0.02,0.13
13.149,-0.11,0.05,0.00,0.12
13.159,-0.10,0.03,0.02,0.11
13.169,-0.05,0.04,0.04,0.07
13.179,-0.05,0.04,0.07,0.09
13.189,-0.08,0.05,0.12,0.16
13.199,-0.04,0.04,0.14,0.15
13.209,0.02,0.04,0.11,0.12
13.219,0.03,0.03,0.07,0.08
13.229,0.02,0.01,0.04,0.04
13.239,-0.00,0.04,-0.01,0.04
13.249,-0.04,0.06,-0.05,0.09
13.259,-0.06,0.04,-0.11,0.14
13.269,-0.09,-0.01,-0.13,0.16
13.279,-0.11,-0.01,-0.13,0.17
13.289,-0.14,0.01,-0.11,0.17
13.299,-0.17,-0.02,-0.07,0.19
13.309,-0.21,-0.00,-0.06,0.22
13.319,-0.21,0.03,-0.07,0.22
13.329,-0.18,0.05,-0.06,0.19
13.339,-0.17,0.03,-0.07,0.19
13.349,-0.14,0.01,-0.03,0.15
13.359,-0.11,0.01,0.02,0.11
13.369,-0.07,-0.00,0.06,0.09
13.379,-0.07,0.00,0.11,0.13
13.389,-0.06,0.00,0.08,0.10
13.399,-0.05,0.01,0.01,0.06
13.409,-0.06,0.04,-0.04,0.09
13.419,-0.02,0.04,-0.09,0.10
13.429,-0.01,0.03,-0.07,0.07
13.439,-0.03,0.01,-0.06,0.07
13.449,-0.05,-0.01,-0.01,0.05
13.459,-0.08,-0.00,0.05,0.10
13.469,-0.09,0.03,0.04,0.11
13.479,-0.15,0.04,0.03,0.16
13.490,-0.19,0.05,0.02,0.19
13.499,-0.17,0.07,-0.01,0.19
13.509,-0.14,0.07,-0.03,0.17
13.519,-0.13,0.07,-0.03,0.15
13.530,-0.13,0.06,-0.04,0.15
13.539,-0.15,0.04,-0.06,0.17
13.549,-0.13,0.04,-0.08,0.16
13.560,-0.11,0.03,-0.07,0.14
13.569,-0.10,0.05,-0.07,0.13
13.579,-0.08,0.03,-0.07,0.11
13.589,-0.03,0.02,-0.05,0.06
13.599,-0.05,-0.01,-0.03,0.06
13.609,-0.07,-0.01,-0.01,0.07
13.620,-0.10,-0.02,0.01,0.10
13.629,-0.10,-0.03,0.05,0.11
13.639,-0.10,-0.04,0.07,0.13
13.650,-0.13,-0.03,0.06,0.15
13.659,-0.15,-0.02,0.04,0.15
13.669,-0.16,-0.05,-0.02,0.17
13.679,-0.12,-0.02,-0.09,0.15
13.690,-0.06,-0.03,-0.15,0.17
13.700,-0.07,-0.02,-0.18,0.19
13.709,-0.10,-0.03,-0.17,0.20
13.720,-0.10,-0.00,-0.12,0.16
13.729,-0.09,0.01,-0.09,0.13
13.740,-0.09,0.03,-0.07,0.12
13.750,-0.13,0.02,-0.07,0.15
13.760,-0.10,0.02,-0.06,0.12
13.770,-0.12,0.04,-0.09,0.15
13.780,-0.16,0.03,-0.12,0.21
13.790,-0.18,0.03,-0.09,0.20
13.800,-0.21,0.01,-0.05,0.22
13.810,-0.18,-0.01,0.02,0.19
13.820,-0.12,-0.01,0.02,0.12
13.830,-0.03,-0.03,-0.03,0.05
13.840,0.01,-0.04,-0.02,0.05
13.850,0.09,-0.03,0.01,0.09
13.860,0.10,0.01,0.04,0.11
13.870,0.07,0.02,0.07,0.10
13.880,0.00,0.03,0.07,0.08
13.890,-0.09,0.07,0.05,0.12
13.900,-0.12,0.10,0.01,0.16
13.910,-0.17,0.10,-0.01,0.20
13.920,-0.22,0.11,-0.02,0.24
13.930,-0.24,0.11,-0.01,0.26
13.940,-0.21,0.12,-0.01,0.24
13.950,-0.15,0.10,0.01,0.19
13.960,-0.12,0.06,0.01,0.13
13.970,-0.08,0.03,0.01,0.09
13.980,0.03,0.01,-0.03,0.04
13.990,0.05,-0.01,-0.04,0.06
14.000,0.01,-0.03,0.00,0.03
14.010,-0.04,-0.03,0.02,0.05
14.020,-0.13,-0.01,0.00,0.13
14.030,-0.19,0.01,-0.05,0.20
14.040,-0.25,0.01,-0.11,0.27
14.050,-0.21,-0.00,-0.12,0.24
14.060,-0.14,-0.00,-0.11,0.18
14.070,-0.08,0.03,-0.12,0.15
14.080,-0.06,0.03,-0.09,0.11
14.090,-0.04,-0.04,-0.05,0.08
14.100,-0.03,-0.04,-0.03,0.06
14.110,-0.07,-0.02,-0.02,0.08
14.120,-0.11,-0.02,-0.02,0.11
14.130,-0.16,-0.04,-0.02,0.16
14.140,-0.14,-0.02,-0.02,0.14
14.150,-0.10,0.00,-0.02,0.10
14.160,-0.10,-0.03,0.01,0.11
14.170,-0.13,-0.03,0.03,0.14
14.180,-0.11,-0.01,-0.01,0.11
14.190,-0.08,0.02,-0.09,0.12
14.200,-0.11,0.01,-0.17,0.20
14.210,-0.13,-0.00,-0.15,0.20
14.220,-0.11,0.00,-0.12,0.17
14.230,-0.09,-0.01,-0.05,0.10
14.240,-0.04,-0.04,0.05,0.07
14.250,-0.02,-0.02,0.07,0.08
14.260,-0.04,0.01,0.12,0.12
14.270,-0.08,0.03,0.11,0.13
14.280,-0.09,0.04,0.04,0.10
14.290,-0.05,0.05,0.02,0.07
14.300,-0.03,0.04,-0.00,0.05
14.310,-0.09,0.04,-0.02,0.10
14.320,-0.07,0.06,-0.07,0.11
14.330,-0.07,0.08,-0.08,0.13
14.340,-0.15,0.09,-0.06,0.19
14.350,-0.15,0.11,-0.05,0.19
14.360,-0.14,0.10,-0.04,0.18
14.370,-0.13,0.09,-0.05,0.17
14.380,-0.12,0.09,-0.06,0.17
14.390,-0.11,0.08,-0.07,0.15
14.400,-0.11,0.06,-0.05,0.14
14.410,-0.16,0.05,-0.03,0.17
14.420,-0.14,0.02,-0.01,0.15
14.430,-0.11,0.01,-0.02,0.11
14.440,-0.08,-0.01,-0.01,0.09
14.450,-0.07,-0.00,-0.01,0.07
14.460,-0.09,0.00,-0.03,0.09
14.470,-0.09,0.00,-0.01,0.09
14.480,-0.11,0.02,-0.03,0.12
14.490,-0.14,0.04,-0.03,0.15
14.500,-0.16,0.02,-0.01,0.17
14.510,-0.13,0.02,0.03,0.13
14.520,-0.06,0.01,0.03,0.07
14.530,-0.04,0.04,-0.03,0.06
14.540,-0.03,0.07,-0.10,0.12
14.550,-0.12,0.04,-0.09,0.15
14.560,-0.19,0.02,-0.03,0.20
14.570,-0.22,-0.03,0.06,0.23
14.580,-0.16,-0.08,0.02,0.18
14.590,-0.10,-0.07,-0.05,0.13
14.600,-0.01,-0.08,-0.10,0.13
14.610,-0.02,-0.10,-0.10,0.14
14.620,0.00,-0.09,-0.03,0.10
14.630,-0.04,-0.07,-0.01,0.08
14.640,-0.11,-0.03,-0.01,0.11
14.650,-0.17,-0.00,-0.06,0.18
14.660,-0.21,0.00,-0.10,0.23
14.670,-0.19,0.03,-0.12,0.22
14.680,-0.13,0.06,-0.11,0.18
14.690,-0.09,0.05,-0.05,0.12
14.700,-0.07,0.04,0.04,0.09
14.710,-0.10,0.04,0.10,0.14
14.720,-0.10,0.05,0.06,0.13
14.730,-0.11,0.03,0.04,0.12
14.740,-0.13,0.01,0.10,0.16
14.750,-0.13,-0.01,0.13,0.19
14.760,-0.09,0.01,0.12,0.14
14.770,-0.06,0.01,0.06,0.09
14.780,-0.08,0.01,0.03,0.09
14.790,-0.12,-0.00,-0.01,0.12
14.800,-0.12,-0.01,-0.04,0.13
14.810,-0.13,-0.00,-0.01,0.13
14.820,-0.14,-0.02,0.00,0.14
14.830,-0.11,0.00,0.01,0.11
14.840,-0.12,0.00,-0.00,0.12
14.850,-0.15,-0.01,-0.02,0.15
14.860,-0.11,0.02,-0.03,0.12
14.870,-0.13,0.01,-0.07,0.14
14.880,-0.16,-0.00,-0.06,0.17
14.890,-0.15,-0.00,-0.03,0.16
14.900,-0.13,0.03,-0.01,0.13
14.910,-0.12,0.04,-0.02,0.13
14.920,-0.10,0.03,0.01,0.11
14.930,-0.10,-0.00,0.04,0.11
14.940,-0.08,-0.02,0.05,0.10
14.950,-0.05,-0.03,-0.00,0.06
14.960,-0.06,-0.03,-0.02,0.07
14.970,-0.04,-0.03,-0.04,0.07
14.980,-0.03,-0.05,-0.05,0.08
14.990,-0.07,-0.06,-0.03,0.10
15.000,-0.08,-0.07,-0.02,0.11
15.010,-0.08,-0.06,-0.02,0.10
15.020,-0.06,-0.06,-0.01,0.08
15.030,-0.09,-0.06,-0.01,0.11
15.041,-0.13,-0.04,0.01,0.13
15.050,-0.08,-0.00,-0.00,0.08
15.060,-0.09,0.01,-0.00,0.09
15.070,-0.14,0.01,0.02,0.14
15.081,-0.14,0.01,0.03,0.14
15.090,-0.13,0.04,-0.01,0.13
15.100,-0.12,0.02,-0.05,0.13
15.111,-0.09,0.04,-0.07,0.12
15.120,-0.09,0.03,-0.02,0.09
15.130,-0.09,0.02,0.02,0.10
15.141,-0.11,0.01,0.00,0.12
15.150,-0.12,0.01,0.02,0.12
15.161,-0.11,0.00,0.01,0.11
15.170,-0.13,0.02,-0.02,0.13
15.181,-0.09,0.00,-0.04,0.10
15.191,-0.06,0.02,-0.02,0.07
15.201,-0.08,0.03,-0.00,0.08
15.210,-0.07,-0.00,0.01,0.07
15.221,-0.07,0.03,-0.00,0.08
15.230,-0.08,0.03,-0.02,0.09
15.241,-0.12,0.03,-0.06,0.13
15.251,-0.08,0.05,-0.10,0.14
15.261,-0.06,0.05,-0.13,0.15
15.270,-0.07,0.05,-0.06,0.11
15.281,-0.07,0.04,0.01,0.08
15.291,-0.07,0.03,0.01,0.08
15.301,-0.08,0.03,-0.05,0.10
15.311,-0.08,0.03,-0.09,0.12
15.321,-0.16,0.02,-0.10,0.20
15.331,-0.18,-0.01,-0.10,0.20
15.341,-0.19,-0.02,-0.02,0.19
15.351,-0.13,-0.05,0.02,0.14
15.361,-0.10,-0.04,-0.01,0.11
15.371,-0.04,-0.02,-0.01,0.05
15.381,-0.01,-0.01,-0.03,0.04
15.391,-0.02,-0.01,-0.04,0.05
15.401,-0.05,0.01,-0.01,0.05
15.411,-0.12,0.02,-0.03,0.13
15.421,-0.17,0.03,-0.06,0.18
15.431,-0.21,0.05,-0.06,0.22
15.441,-0.21,0.06,-0.05,0.23
15.451,-0.22,0.05,-0.04,0.23
15.461,-0.16,0.04,0.02,0.17
15.471,-0.11,0.05,0.04,0.13
15.481,-0.08,0.04,0.01,0.09
15.491,-0.04,0.01,0.03,0.05
15.501,-0.03,-0.02,0.02,0.04
15.511,-0.02,-0.03,0.00,0.03
15.521,-0.04,-0.04,0.02,0.06
15.531,-0.04,-0.03,0.01,0.05
15.541,-0.04,-0.03,0.01,0.05
15.551,-0.03,-0.04,-0.00,0.05
15.561,-0.07,-0.03,-0.01,0.08
15.571,-0.09,-0.01,-0.04,0.10
15.581,-0.07,-0.04,-0.06,0.10
15.591,-0.14,-0.03,-0.06,0.16
15.601,-0.16,-0.02,-0.06,0.17
15.611,-0.17,-0.03,-0.05,0.18
15.621,-0.18,-0.01,-0.03,0.18
15.631,-0.18,-0.02,0.01,0.18
15.641,-0.17,-0.02,0.03,0.18
15.651,-0.16,-0.01,0.03,0.17
15.661,-0.12,-0.01,0.00,0.12
15.671,-0.10,-0.00,0.02,0.10
15.681,-0.11,0.01,0.03,0.11
15.691,-0.07,0.03,0.03,0.08
15.701,-0.07,0.03,-0.00,0.07
15.711,-0.06,0.02,0.00,0.06
15.721,-0.05,0.01,0.01,0.05
15.731,-0.08,-0.01,0.01,0.08
15.741,-0.13,-0.00,0.00,0.13
15.751,-0.13,0.01,-0.01,0.13
15.761,-0.10,-0.00,-0.01,0.10
15.771,-0.09,-0.00,0.03,0.10
15.781,-0.05,-0.01,0.02,0.05
15.791,-0.06,-0.01,-0.00,0.06
15.801,-0.04,-0.01,0.03,0.05
15.811,-0.02,0.01,0.02,0.03
15.821,-0.07,0.03,-0.00,0.07
15.831,-0.10,0.02,-0.01,0.10
15.841,-0.14,0.03,0.01,0.15
15.851,-0.14,0.05,0.01,0.15
15.861,-0.15,0.05,0.01,0.16
15.871,-0.16,0.03,0.03,0.17
15.881,-0.11,0.06,-0.04,0.13
15.891,-0.09,0.07,-0.07,0.13
15.901,-0.09,0.04,-0.07,0.12
15.911,-0.04,0.04,-0.08,0.10
15.921,-0.05,0.03,-0.08,0.10
15.931,-0.10,0.04,-0.07,0.13
15.941,-0.14,0.02,-0.05,0.15
15.951,-0.12,0.00,-0.00,0.12
15.961,-0.16,-0.01,0.07,0.18
15.971,-0.17,-0.03,0.10,0.20
15.981,-0.16,-0.03,0.08,0.18
15.990,-0.13,-0.02,0.06,0.14
16.000,-0.10,-0.02,0.00,0.10
16.010,-0.10,-0.02,-0.04,0.11
16.020,-0.09,-0.01,-0.09,0.13
16.030,-0.06,0.01,-0.10,0.11
16.040,-0.05,-0.02,-0.05,0.07
16.050,-0.05,-0.02,-0.00,0.05
16.060,-0.03,-0.02,0.01,0.04
16.070,-0.03,0.01,-0.01,0.03
16.080,-0.05,0.01,-0.04,0.07
16.090,-0.09,-0.00,-0.05,0.10
16.100,-0.14,-0.01,0.02,0.15
16.110,-0.21,0.02,0.02,0.21
16.120,-0.23,0.02,-0.04,0.24
16.130,-0.20,0.04,-0.13,0.24
16.140,-0.23,0.06,-0.16,0.29
16.150,-0.19,0.02,-0.14,0.24
16.160,-0.12,-0.02,-0.04,0.13
16.170,-0.03,-0.02,0.03,0.05
16.180,0.05,-0.03,0.07,0.09
16.190,0.08,-0.04,0.08,0.12
16.200,0.08,-0.02,0.08,0.12
16.210,0.04,-0.01,0.09,0.10
16.220,-0.07,0.00,0.10,0.12
16.230,-0.13,0.03,0.07,0.15
16.240,-0.17,0.04,0.02,0.18
16.250,-0.19,0.04,-0.00,0.20
16.260,-0.17,0.04,-0.03,0.18
16.270,-0.15,0.03,-0.06,0.16
16.280,-0.15,0.05,-0.06,0.17
16.290,-0.14,0.05,-0.09,0.17
16.300,-0.11,0.01,-0.06,0.13
16.310,-0.08,-0.01,-0.04,0.09
16.320,-0.06,-0.04,0.01,0.08
16.330,-0.06,-0.06,0.05,0.10
16.340,-0.03,-0.06,0.08,0.11
16.350,-0.00,-0.06,0.09,0.11
16.361,-0.02,-0.03,0.08,0.09
16.371,-0.07,-0.02,0.01,0.08
16.381,-0.10,-0.01,-0.02,0.10
16.391,-0.11,-0.02,-0.05,0.13
16.402,-0.13,-0.01,-0.04,0.14
16.411,-0.14,-0.03,-0.04,0.14
16.421,-0.12,-0.01,-0.08,0.14
16.431,-0.10,-0.01,-0.11,0.15
16.441,-0.13,-0.01,-0.08,0.15
16.451,-0.11,-0.02,-0.06,0.12
16.461,-0.10,-0.04,-0.02,0.11
16.471,-0.14,-0.01,0.01,0.14
16.481,-0.15,-0.01,0.03,0.15
16.491,-0.16,0.00,-0.01,0.16
16.501,-0.14,0.04,-0.03,0.15
16.512,-0.11,0.05,-0.07,0.14
16.521,-0.09,0.06,-0.11,0.15
16.532,-0.04,0.04,-0.10,0.11
16.542,-0.04,0.05,-0.09,0.11
16.551,0.01,0.06,-0.05,0.08
16.561,-0.09,0.04,0.11,0.14
16.572,-0.15,-0.01,0.14,0.20
16.581,-0.12,0.01,0.07,0.14
16.592,-0.10,0.02,0.02,0.11
16.602,-0.08,0.02,-0.07,0.11
16.612,-0.06,0.02,-0.07,0.09
16.622,-0.05,-0.01,-0.03,0.06
16.632,-0.08,-0.02,-0.03,0.08
16.642,-0.11,-0.00,-0.05,0.12
16.652,-0.16,-0.00,-0.08,0.18
16.662,-0.16,-0.01,-0.05,0.17
16.672,-0.15,-0.02,-0.05,0.16
16.682,-0.12,-0.02,-0.02,0.12
16.692,-0.10,-0.04,-0.01,0.11
16.702,-0.07,-0.03,-0.01,0.08
16.712,-0.05,-0.00,-0.02,0.06
16.722,-0.06,0.02,-0.04,0.08
16.732,-0.06,0.03,-0.04,0.08
16.742,-0.09,0.04,-0.00,0.09
16.752,-0.10,0.03,0.01,0.11
16.762,-0.12,0.03,0.05,0.14
16.772,-0.13,0.04,0.08,0.16
16.782,-0.11,0.02,0.06,0.13
16.792,-0.11,0.03,0.01,0.11
16.802,-0.06,0.03,-0.05,0.09
16.812,-0.08,0.04,-0.09,0.12
16.822,-0.11,-0.00,-0.13,0.17
16.832,-0.11,0.02,-0.15,0.19
16.842,-0.14,0.01,-0.14,0.20
16.852,-0.18,-0.01,-0.11,0.21
16.862,-0.15,-0.01,-0.10,0.18
16.872,-0.14,-0.03,-0.09,0.17
16.882,-0.14,-0.03,-0.05,0.15
16.892,-0.14,-0.01,-0.03,0.14
16.902,-0.05,-0.00,-0.07,0.09
16.912,-0.03,0.01,-0.14,0.14
16.922,-0.05,0.01,-0.12,0.13
16.932,-0.09,0.00,-0.04,0.10
16.942,-0.14,-0.00,0.00,0.14
16.952,-0.18,-0.00,-0.00,0.18
16.962,-0.22,0.01,-0.03,0.23
16.972,-0.18,0.05,-0.03,0.19
16.982,-0.15,0.02,0.01,0.16
16.992,-0.14,-0.02,0.07,0.16
17.002,-0.06,-0.07,0.08,0.12
17.012,0.03,-0.07,0.04,0.09
17.022,0.09,-0.05,-0.05,0.11
17.032,0.08,-0.06,-0.04,0.11
17.042,0.02,-0.05,-0.00,0.05
17.052,-0.03,-0.04,0.05,0.07
17.062,-0.11,-0.01,0.04,0.11
17.072,-0.18,0.02,-0.02,0.18
17.082,-0.23,0.04,-0.09,0.25
17.092,-0.27,0.06,-0.12,0.30
17.102,-0.27,0.07,-0.12,0.30
17.112,-0.27,0.07,-0.10,0.30
17.122,-0.25,0.06,-0.05,0.26
17.132,-0.18,0.05,-0.01,0.18
17.142,-0.13,0.03,0.01,0.14
17.152,-0.10,0.01,0.02,0.10
17.162,-0.07,-0.00,0.03,0.08
17.172,-0.03,-0.01,0.04,0.05
17.182,0.01,-0.00,-0.00,0.01
17.192,-0.02,-0.01,-0.02,0.03
17.202,-0.04,0.00,-0.01,0.04
17.212,-0.08,0.04,-0.02,0.09
17.222,-0.12,0.03,-0.03,0.13
17.232,-0.17,0.01,-0.02,0.17
17.242,-0.18,0.03,-0.01,0.18
17.252,-0.16,0.03,-0.00,0.16
17.262,-0.12,0.02,0.01,0.12
17.272,-0.09,0.02,-0.01,0.09
17.282,-0.07,0.02,-0.01,0.08
17.292,-0.06,-0.00,0.01,0.07
17.302,-0.08,-0.01,0.02,0.08
17.312,-0.11,-0.01,0.00,0.11
17.322,-0.09,-0.01,0.02,0.10
17.332,-0.06,-0.02,0.03,0.08
17.342,-0.07,-0.02,0.04,0.08
17.352,-0.10,-0.03,0.06,0.12
17.362,-0.13,-0.03,0.08,0.16
17.372,-0.11,0.00,0.05,0.12
17.382,-0.13,0.01,0.01,0.14
17.392,-0.15,-0.04,0.00,0.15
17.402,-0.10,-0.02,-0.01,0.11
17.412,-0.08,-0.00,0.03,0.08
17.422,-0.03,-0.03,0.05,0.07
17.432,-0.04,-0.05,0.03,0.07
17.442,-0.02,-0.03,0.05,0.06
17.452,-0.03,0.01,0.03,0.05
17.462,-0.10,0.01,-0.00,0.10
17.472,-0.11,0.01,0.01,0.12
17.482,-0.13,0.00,-0.01,0.13
17.492,-0.14,-0.01,-0.02,0.14
17.502,-0.13,0.02,-0.04,0.14
17.512,-0.12,0.02,-0.03,0.13
17.522,-0.11,0.02,-0.03,0.12
17.532,-0.11,0.01,-0.08,0.14
17.542,-0.08,0.02,-0.10,0.13
17.552,-0.09,0.02,-0.08,0.12
17.562,-0.12,0.03,-0.06,0.14
17.572,-0.14,0.01,0.01,0.14
17.582,-0.17,0.02,0.03,0.17
17.592,-0.18,0.01,0.04,0.18
17.602,-0.16,0.00,0.02,0.16
17.612,-0.13,-0.00,-0.02,0.13
17.622,-0.06,0.01,-0.03,0.07
17.632,-0.03,0.01,-0.02,0.03
17.642,-0.01,-0.01,-0.05,0.05
17.652,0.00,0.01,-0.06,0.06
17.662,0.02,-0.01,-0.07,0.07
17.672,-0.05,-0.02,-0.05,0.08
17.682,-0.10,-0.03,-0.02,0.10
17.692,-0.13,-0.00,0.01,0.13
17.702,-0.19,0.03,0.01,0.19
17.712,-0.17,0.03,0.01,0.17
17.722,-0.12,0.01,0.02,0.12
17.732,-0.11,0.02,0.05,0.12
17.742,-0.07,0.04,0.03,0.09
17.752,-0.05,0.05,-0.05,0.09
17.762,-0.08,0.07,-0.14,0.17
17.772,-0.13,0.07,-0.18,0.24
17.782,-0.16,0.04,-0.13,0.21
17.792,-0.18,-0.00,-0.04,0.19
17.802,-0.16,-0.05,0.03,0.17
17.812,-0.11,-0.05,0.02,0.13
17.822,-0.05,-0.05,-0.00,0.07
17.832,-0.02,-0.06,-0.01,0.06
17.842,-0.03,-0.05,-0.01,0.06
17.852,-0.03,-0.03,-0.01,0.05
17.862,-0.12,-0.00,-0.03,0.12
17.872,-0.16,0.03,-0.07,0.18
17.882,-0.20,0.03,-0.06,0.21
17.893,-0.17,0.06,-0.06,0.19
17.902,-0.18,0.08,-0.05,0.21
17.913,-0.17,0.07,-0.03,0.18
17.923,-0.12,0.04,-0.01,0.13
17.932,-0.07,0.04,0.02,0.08
17.942,-0.03,0.02,0.05,0.06
17.952,-0.01,0.01,0.06,0.06
17.963,-0.03,-0.02,0.07,0.08
17.972,-0.01,-0.01,0.07,0.07
17.982,-0.01,-0.01,0.05,0.06
17.992,-0.01,0.00,0.02,0.02
18.002,-0.04,-0.00,-0.03,0.05
18.012,-0.10,0.01,-0.07,0.12
18.022,-0.15,-0.00,-0.09,0.17
18.033,-0.21,-0.03,-0.05,0.21
18.043,-0.20,-0.04,-0.05,0.21
18.053,-0.19,-0.04,-0.06,0.20
18.063,-0.15,-0.05,-0.09,0.18
18.073,-0.10,-0.06,-0.14,0.18
18.082,-0.04,-0.06,-0.19,0.21
18.093,-0.05,-0.07,-0.14,0.17
18.103,-0.06,-0.09,-0.10,0.14
18.112,-0.08,-0.08,-0.07,0.13
18.123,-0.12,-0.04,-0.03,0.13
18.133,-0.14,-0.03,0.01,0.15
18.143,-0.11,-0.03,-0.01,0.12
18.153,-0.06,-0.02,-0.02,0.06
18.163,-0.07,-0.02,-0.05,0.09
18.173,-0.08,-0.02,-0.04,0.09
18.183,-0.03,-0.04,-0.02,0.05
18.193,-0.03,-0.01,-0.01,0.03
18.203,-0.06,-0.01,-0.00,0.06
18.213,-0.05,-0.02,-0.01,0.05
18.223,-0.05,-0.01,-0.00,0.05
18.233,-0.06,0.01,-0.02,0.07
18.243,-0.10,-0.00,-0.02,0.10
18.253,-0.11,0.03,0.01,0.11
18.263,-0.11,0.03,0.03,0.12
18.273,-0.10,0.05,0.02,0.12
18.283,-0.11,0.04,0.01,0.12
18.293,-0.10,0.05,0.00,0.11
18.303,-0.10,0.06,-0.02,0.12
18.313,-0.09,0.05,-0.04,0.11
18.323,-0.04,0.03,-0.05,0.07
18.333,-0.05,0.03,-0.04,0.07
18.343,-0.09,0.04,-0.06,0.11
18.353,-0.09,0.04,-0.07,0.12
18.363,-0.07,0.03,-0.09,0.12
18.373,-0.11,0.03,-0.05,0.13
18.383,-0.11,0.01,-0.04,0.12
18.393,-0.11,0.01,-0.05,0.12
18.403,-0.09,0.00,-0.01,0.10
18.413,-0.10,-0.01,0.01,0.10
18.423,-0.10,-0.01,-0.00,0.10
18.433,-0.11,-0.01,-0.03,0.11
18.443,-0.09,-0.00,-0.06,0.11
18.453,-0.09,0.01,-0.06,0.11
18.463,-0.09,0.00,-0.04,0.10
18.473,-0.06,0.00,-0.02,0.06
18.483,-0.06,0.02,-0.00,0.06
18.493,-0.06,0.04,-0.03,0.07
18.503,-0.08,0.03,-0.05,0.10
18.513,-0.12,0.02,-0.03,0.12
18.523,-0.14,0.02,0.01,0.14
18.533,-0.14,0.02,0.03,0.15
18.543,-0.13,0.03,-0.02,0.14
18.553,-0.14,0.02,-0.10,0.17
18.563,-0.12,0.03,-0.17,0.21
18.573,-0.13,0.03,-0.19,0.23
18.583,-0.20,0.01,-0.15,0.25
18.593,-0.15,-0.04,-0.14,0.20
18.603,-0.10,-0.06,-0.12,0.17
18.613,-0.04,-0.08,-0.12,0.15
18.623,0.05,-0.08,-0.05,0.11
18.633,0.05,-0.08,0.03,0.10
18.643,0.01,-0.06,0.09,0.11
18.653,-0.06,-0.02,0.11,0.13
18.663,-0.12,0.01,0.05,0.13
18.673,-0.15,0.03,0.00,0.15
18.683,-0.18,0.05,-0.03,0.19
18.693,-0.21,0.08,-0.04,0.23
18.703,-0.20,0.05,-0.05,0.21
18.713,-0.16,0.06,-0.04,0.18
18.723,-0.10,0.06,-0.07,0.14
18.733,-0.07,0.04,-0.06,0.10
18.743,-0.04,0.01,-0.01,0.04
18.753,0.00,-0.01,0.05,0.05
18.763,-0.05,-0.05,0.11,0.13
18.773,-0.09,-0.05,0.12,0.16
18.783,-0.08,-0.04,0.09,0.13
18.793,-0.08,-0.03,0.01,0.09
18.803,-0.11,-0.02,-0.05,0.12
18.813,-0.14,0.00,-0.10,0.17
18.823,-0.13,0.01,-0.12,0.18
18.833,-0.07,0.01,-0.13,0.15
18.843,-0.06,0.02,-0.14,0.16
18.853,-0.10,0.03,-0.09,0.14
18.863,-0.12,0.03,-0.02,0.13
18.873,-0.11,0.04,0.03,0.12
18.883,-0.10,0.01,0.05,0.11
18.893,-0.11,-0.01,0.10,0.15
18.903,-0.12,-0.02,0.08,0.14
18.913,-0.10,-0.00,0.06,0.12
18.923,-0.09,0.00,0.02,0.09
18.933,-0.10,-0.03,-0.03,0.10
18.943,-0.12,-0.02,-0.04,0.13
18.953,-0.14,-0.01,-0.09,0.17
18.963,-0.14,-0.02,-0.10,0.18
18.973,-0.15,-0.03,-0.09,0.18
18.983,-0.12,-0.01,-0.09,0.15
18.993,-0.10,-0.02,-0.08,0.13
19.003,-0.12,-0.04,-0.01,0.13
19.013,-0.10,-0.03,-0.00,0.11
19.023,-0.12,-0.01,-0.02,0.12
19.033,-0.11,-0.01,-0.02,0.11
19.043,-0.08,0.00,-0.03,0.08
19.053,-0.06,0.02,-0.02,0.07
19.063,-0.06,0.03,0.00,0.07
19.073,-0.08,0.04,0.01,0.09
19.083,-0.09,0.04,0.02,0.10
19.093,-0.12,0.05,0.01,0.13
19.103,-0.14,0.06,-0.02,0.15
19.113,-0.13,0.05,-0.03,0.15
19.123,-0.11,0.02,-0.05,0.13
19.133,-0.11,0.03,-0.06,0.13
19.143,-0.09,0.01,-0.02,0.09
19.153,-0.10,-0.01,0.00,0.10
19.163,-0.11,-0.01,0.03,0.12
19.173,-0.16,0.00,0.05,0.17
19.183,-0.15,0.01,0.05,0.16
19.193,-0.12,0.02,-0.01,0.12
19.203,-0.12,0.01,-0.01,0.12
19.213,-0.11,-0.00,-0.04,0.11
19.223,-0.12,-0.00,-0.05,0.13
19.233,-0.13,-0.01,-0.05,0.14
19.243,-0.09,-0.04,-0.06,0.12
19.253,-0.07,-0.03,-0.05,0.09
19.263,-0.07,-0.02,0.00,0.07
19.273,-0.08,-0.04,0.03,0.09
19.283,-0.09,-0.03,0.01,0.09
19.293,-0.10,0.00,-0.02,0.10
19.303,-0.14,0.01,-0.04,0.15
19.313,-0.17,-0.00,-0.01,0.17
19.323,-0.17,-0.00,-0.00,0.17
19.333,-0.18,0.01,-0.06,0.19
19.343,-0.16,0.02,-0.11,0.20
19.353,-0.17,0.04,-0.13,0.22
19.363,-0.18,-0.01,-0.08,0.20
19.373,-0.14,-0.03,0.01,0.15
19.383,-0.08,-0.06,0.06,0.12
19.394,-0.01,-0.05,0.10,0.12
19.403,0.03,-0.06,0.13,0.15
19.413,0.08,-0.04,0.13,0.15
19.424,0.05,-0.01,0.13,0.14
19.433,-0.01,0.02,0.10,0.10
19.443,-0.14,0.01,0.05,0.15
19.453,-0.23,0.04,-0.02,0.23
19.463,-0.29,0.07,-0.08,0.30
19.473,-0.28,0.08,-0.09,0.31
19.483,-0.23,0.08,-0.08,0.25
19.494,-0.17,0.07,-0.06,0.19
19.504,-0.09,0.04,-0.04,0.10
19.514,-0.06,0.02,0.01,0.06
19.524,-0.04,0.02,0.04,0.06
19.534,-0.06,0.01,0.04,0.07
19.544,-0.11,-0.01,0.05,0.12
19.554,-0.09,-0.02,0.02,0.09
19.564,-0.07,-0.03,-0.00,0.08
19.574,-0.04,-0.01,-0.04,0.06
19.584,-0.02,-0.00,-0.07,0.07
19.594,-0.04,-0.03,-0.04,0.06
19.604,-0.08,-0.02,-0.00,0.08
19.614,-0.10,-0.01,-0.04,0.11
19.624,-0.15,-0.00,-0.04,0.16
19.634,-0.17,-0.01,-0.05,0.17
19.644,-0.15,-0.03,-0.06,0.16
19.654,-0.14,-0.01,-0.05,0.15
19.664,-0.13,-0.05,-0.04,0.15
19.674,-0.08,-0.03,-0.00,0.08
19.684,-0.08,-0.00,0.04,0.09
19.694,-0.10,-0.02,0.06,0.12
19.704,-0.14,-0.02,0.08,0.16
19.714,-0.16,-0.02,0.11,0.19
19.724,-0.17,-0.02,0.09,0.20
19.734,-0.17,0.00,0.05,0.18
19.744,-0.10,0.00,0.02,0.11
19.754,-0.05,0.01,-0.01,0.05
19.764,0.00,-0.00,-0.04,0.04
19.774,-0.02,-0.01,-0.04,0.05
19.784,-0.03,-0.02,-0.01,0.04
19.794,-0.07,-0.05,0.01,0.09
19.804,-0.09,-0.03,-0.01,0.09
19.814,-0.09,-0.01,0.01,0.09
19.824,-0.16,-0.03,-0.01,0.16
19.834,-0.13,-0.02,0.01,0.13
19.844,-0.13,0.02,0.00,0.13
19.854,-0.11,0.01,0.01,0.11
19.864,-0.09,0.01,0.02,0.09
19.874,-0.07,0.03,-0.05,0.09
19.884,-0.09,0.03,-0.12,0.15
19.894,-0.10,0.02,-0.14,0.17
19.904,-0.12,0.00,-0.11,0.17
19.914,-0.13,0.01,-0.10,0.17
19.924,-0.13,-0.00,-0.07,0.14
19.934,-0.13,-0.02,-0.04,0.14
19.944,-0.13,-0.03,-0.03,0.13
19.954,-0.15,-0.03,0.02,0.15
19.964,-0.14,0.00,0.07,0.16
19.974,-0.13,-0.00,0.08,0.15
19.984,-0.10,0.00,0.05,0.11
19.993,-0.05,-0.01,0.01,0.06
20.003,-0.03,-0.01,-0.05,0.06
20.013,-0.03,-0.01,-0.08,0.09
20.023,-0.02,0.00,-0.13,0.13
20.033,-0.05,0.01,-0.15,0.16
20.043,-0.07,0.00,-0.03,0.07
20.053,-0.11,0.01,-0.00,0.11
20.063,-0.16,0.02,0.02,0.16
20.073,-0.16,0.00,0.05,0.17
20.083,-0.21,-0.02,0.11,0.24
20.093,-0.19,0.00,0.04,0.19
20.103,-0.18,0.03,-0.02,0.18
20.113,-0.18,0.03,-0.10,0.21
20.123,-0.15,0.03,-0.14,0.21
20.133,-0.08,0.02,-0.11,0.13
20.143,-0.01,-0.02,-0.08,0.08
20.153,0.08,-0.03,-0.03,0.09
20.163,0.13,-0.03,-0.00,0.13
20.173,0.06,-0.02,0.03,0.07
20.183,-0.02,0.01,0.03,0.03
20.193,-0.13,0.04,-0.02,0.14
20.203,-0.20,0.06,-0.02,0.21
20.215,-0.25,0.09,-0.02,0.26
20.223,-0.26,0.12,-0.04,0.29
20.233,-0.17,0.12,-0.02,0.21
20.243,-0.16,0.11,-0.03,0.20
20.253,-0.12,0.12,-0.05,0.18
20.263,-0.09,0.08,-0.08,0.14
20.273,-0.08,0.05,-0.10,0.14
20.283,-0.08,0.01,-0.05,0.10
20.293,-0.06,-0.04,0.03,0.08
20.303,-0.04,-0.06,0.06,0.10
20.313,-0.01,-0.06,0.09,0.11
20.323,-0.02,-0.06,0.09,0.11
20.333,-0.04,-0.07,0.04,0.09
20.343,-0.04,-0.05,-0.04,0.08
20.357,-0.03,-0.02,-0.08,0.09
20.367,-0.08,-0.02,-0.11,0.14
20.377,-0.09,-0.01,-0.11,0.14
20.387,-0.11,-0.01,-0.09,0.14
20.397,-0.19,-0.02,-0.05,0.20
20.407,-0.23,-0.01,-0.04,0.24
20.417,-0.23,0.01,-0.03,0.23
20.427,-0.18,0.01,-0.04,0.19
20.437,-0.18,0.02,-0.04,0.19
20.447,-0.13,0.02,0.02,0.13
20.457,-0.10,0.04,0.04,0.12
20.467,-0.08,0.03,0.03,0.09
20.477,-0.08,0.03,0.01,0.09
20.487,-0.08,0.04,-0.02,0.09
20.497,-0.07,0.02,-0.03,0.08
20.507,-0.09,0.01,-0.04,0.10
20.517,-0.12,-0.00,-0.03,0.12
20.527,-0.09,-0.01,-0.00,0.09
20.537,-0.06,-0.02,0.00,0.07
20.547,-0.05,-0.01,-0.00,0.05
20.557,-0.06,-0.01,0.00,0.07
20.567,-0.05,-0.01,-0.01,0.05
20.577,-0.03,-0.01,-0.04,0.05
20.587,-0.05,-0.03,-0.05,0.08
20.597,-0.04,-0.00,-0.04,0.05
20.607,-0.06,0.01,-0.01,0.06
20.617,-0.08,0.03,-0.01,0.09
20.627,-0.09,0.03,-0.04,0.10
20.637,-0.10,0.03,-0.02,0.10
20.647,-0.13,0.04,-0.01,0.13
20.657,-0.17,0.04,-0.03,0.18
20.667,-0.17,0.02,-0.02,0.18
20.677,-0.20,0.03,-0.04,0.21
20.687,-0.19,0.03,-0.06,0.20
20.697,-0.16,0.02,-0.06,0.17
20.707,-0.13,0.02,-0.05,0.15
20.717,-0.10,0.02,-0.04,0.11
20.727,-0.07,0.01,-0.04,0.08
20.739,-0.07,-0.01,-0.02,0.07
20.747,-0.09,-0.03,0.01,0.09
20.757,-0.04,-0.06,0.05,0.09
20.767,-0.05,-0.06,0.08,0.11
20.777,-0.05,-0.08,0.04,0.10
20.787,-0.06,-0.06,-0.01,0.09
20.797,-0.02,-0.05,-0.00,0.05
20.807,-0.01,-0.04,-0.00,0.04
20.817,-0.02,-0.04,0.04,0.06
20.827,-0.03,-0.03,0.03,0.05
20.837,-0.08,-0.01,0.04,0.09
20.847,-0.08,0.01,0.05,0.10
20.857,-0.09,0.01,0.03,0.09
20.867,-0.11,-0.02,0.02,0.12
20.877,-0.10,-0.02,0.02,0.11
20.887,-0.12,-0.03,-0.00,0.13
20.897,-0.16,-0.02,-0.00,0.16
20.907,-0.17,-0.01,0.01,0.17
20.917,-0.14,-0.03,0.02,0.15
20.927,-0.17,-0.04,0.00,0.18
20.937,-0.17,-0.06,-0.06,0.19
20.947,-0.11,-0.07,-0.08,0.15
20.957,-0.00,-0.08,-0.05,0.09
20.967,0.07,-0.06,0.01,0.09
20.977,0.17,-0.04,0.01,0.17
20.987,0.09,-0.03,-0.03,0.10
20.997,-0.02,0.01,0.14,0.14
21.007,0.01,-0.01,0.24,0.24
21.017,0.03,-0.02,0.28,0.28
21.027,-0.00,0.07,0.16,0.17
21.037,-0.16,0.13,0.05,0.21
21.047,-0.15,0.14,-0.05,0.21
21.057,-0.01,0.17,-0.15,0.23
21.067,0.09,0.15,-0.12,0.21
21.077,0.18,0.12,0.06,0.23
21.087,0.06,0.03,0.58,0.58
21.097,0.10,-0.09,0.97,0.97
21.107,0.08,-0.16,1.24,1.26
21.117,-0.04,-0.20,1.21,1.23
21.127,0.08,-0.02,0.91,0.91
21.137,0.06,0.07,0.51,0.52
21.147,0.18,-0.02,0.28,0.33
21.157,0.26,-0.11,-0.03,0.29
21.167,0.24,-0.15,-0.33,0.43
21.177,0.10,-0.03,-0.28,0.30
21.187,-0.02,-0.06,-0.30,0.31
21.197,0.07,-0.16,-0.24,0.29
21.207,-0.09,-0.29,-0.12,0.33
21.217,-0.30,-0.49,-0.21,0.62
21.227,-0.33,-0.28,0.13,0.45
21.237,-0.63,-0.10,0.19,0.66
21.247,-0.68,-0.20,-0.14,0.73
21.257,-0.60,-0.12,-0.34,0.70
21.267,-0.36,-0.19,-0.13,0.43
21.277,-0.39,-0.41,0.52,0.77
21.287,-0.39,-0.43,1.20,1.33
21.297,-0.60,-0.95,1.50,1.87
21.307,-0.55,-0.91,1.13,1.55
21.317,-0.14,-0.35,0.27,0.46
21.327,0.37,-0.21,-0.31,0.53
21.337,0.90,0.08,-0.58,1.08
21.347,0.98,0.16,-0.59,1.15
21.357,0.76,0.08,-0.06,0.77
21.367,0.59,0.03,0.45,0.74
21.377,0.30,0.08,0.74,0.80
21.387,0.06,0.04,0.95,0.96
21.397,-0.03,-0.16,1.18,1.19
21.407,-0.11,-0.50,1.16,1.27
21.417,-0.12,-0.52,0.98,1.11
21.427,-0.02,-0.23,0.71,0.75
21.437,0.32,0.02,0.01,0.33
21.447,0.68,0.27,-0.90,1.16
21.457,0.58,0.31,-1.18,1.36
21.467,0.43,0.07,-0.81,0.93
21.477,0.03,-0.25,-0.35,0.43
21.487,-0.58,-0.20,0.06,0.61
21.497,-0.03,-0.23,-0.09,0.24
21.507,0.30,-0.66,-0.11,0.74
21.517,-0.16,-0.63,0.03,0.65
21.527,0.12,-0.39,0.23,0.46
21.537,0.74,-0.10,1.16,1.38
21.547,0.55,-0.07,1.06,1.19
21.557,0.55,-0.00,1.20,1.32
21.567,0.51,0.07,0.91,1.05
21.577,0.42,0.22,0.30,0.57
21.588,0.40,0.04,-0.29,0.50
21.597,0.46,-0.37,-0.66,0.88
21.608,0.46,-0.65,-0.41,0.89
21.617,0.27,-0.71,-0.12,0.77
21.628,0.39,-0.66,-0.01,0.77
21.637,0.59,-0.63,0.33,0.92
21.648,0.07,-0.94,0.59,1.12
21.658,0.16,-0.79,0.64,1.03
21.668,0.86,-0.69,0.52,1.22
21.678,1.22,-0.78,0.42,1.51
21.688,0.95,-0.94,0.26,1.36
21.698,0.56,-0.93,0.00,1.08
21.708,0.18,-0.77,-0.30,0.84
21.718,-0.01,-0.66,-0.57,0.87
21.728,0.05,-0.55,-0.67,0.87
21.738,0.18,-0.47,-0.64,0.82
21.748,0.17,-0.41,-0.56,0.71
21.758,0.17,-0.41,-0.24,0.51
21.768,0.18,-0.48,0.13,0.53
21.778,0.10,-0.51,0.44,0.68
21.788,0.33,-0.52,0.79,1.00
21.798,0.25,-0.69,0.63,0.96
21.808,0.06,-0.68,0.37,0.78
21.818,-0.12,-0.79,0.11,0.80
21.828,0.00,-0.74,-0.03,0.74
21.838,0.32,-0.40,-0.13,0.53
21.848,0.07,-0.21,-0.09,0.23
21.858,-0.23,-0.31,-0.02,0.39
21.868,-0.26,-0.49,0.15,0.58
21.878,-0.30,-0.44,0.26,0.59
21.888,-0.23,-0.35,0.27,0.50
21.898,-0.15,-0.30,0.24,0.41
21.908,-0.04,-0.30,0.13,0.33
21.918,0.13,-0.34,-0.01,0.37
21.928,0.32,-0.40,-0.24,0.57
21.938,0.39,-0.48,-0.43,0.75
21.948,0.33,-0.54,-0.27,0.68
21.958,0.22,-0.68,0.13,0.73
21.968,0.10,-0.80,0.47,0.93
21.978,0.08,-0.87,0.50,1.01
21.988,0.27,-0.79,0.34,0.90
21.998,0.56,-0.63,0.05,0.84
22.008,0.83,-0.49,-0.13,0.97
22.018,0.86,-0.55,-0.17,1.04
22.028,0.71,-0.69,-0.16,1.00
22.038,0.57,-0.73,-0.16,0.94
22.048,0.50,-0.73,-0.22,0.91
22.058,0.29,-0.77,-0.24,0.85
22.068,0.09,-0.78,-0.29,0.84
22.078,0.10,-0.67,-0.31,0.75
22.088,0.14,-0.54,-0.24,0.60
22.098,0.15,-0.48,-0.11,0.52
22.108,0.23,-0.49,-0.00,0.54
22.118,0.32,-0.42,0.06,0.53
22.128,0.44,-0.29,0.10,0.53
22.138,0.52,-0.26,0.13,0.60
22.148,0.53,-0.42,0.10,0.68
22.158,0.29,-0.22,-0.59,0.69
22.168,0.36,-0.19,-0.37,0.55
22.178,0.23,-0.28,-0.29,0.46
22.188,0.01,-0.44,-0.21,0.49
22.198,-0.15,-0.49,-0.15,0.54
22.208,-0.20,-0.43,-0.01,0.47
22.218,-0.15,-0.37,0.03,0.40
22.228,-0.18,-0.27,-0.07,0.34
