time,ax,ay,az,atotal
0.000,-0.02,0.10,0.10,0.14
0.010,-0.01,0.09,0.04,0.10
0.020,0.01,0.03,-0.09,0.09
0.030,0.02,0.01,-0.06,0.06
0.040,0.02,0.04,0.03,0.05
0.050,-0.04,0.03,0.00,0.05
0.060,-0.10,0.00,-0.02,0.11
0.070,-0.14,0.00,-0.05,0.15
0.080,-0.13,-0.03,-0.04,0.14
0.090,-0.17,0.01,-0.02,0.17
0.100,-0.18,0.06,0.02,0.19
0.110,-0.17,0.05,0.04,0.18
0.120,-0.15,0.03,0.05,0.16
0.130,-0.12,0.00,0.06,0.14
0.140,-0.12,0.03,0.02,0.13
0.150,-0.16,0.01,0.07,0.17
0.160,-0.20,0.04,0.11,0.23
0.170,-0.18,0.06,0.07,0.20
0.180,-0.14,0.04,0.04,0.15
0.190,-0.12,0.05,-0.00,0.13
0.200,-0.10,0.07,-0.03,0.12
0.210,-0.07,0.06,-0.02,0.10
0.220,-0.08,0.11,0.07,0.15
0.230,-0.07,0.13,0.14,0.20
0.240,-0.08,0.12,0.16,0.22
0.250,-0.08,0.10,0.15,0.19
0.260,-0.10,0.09,0.12,0.18
0.270,-0.15,0.09,0.06,0.19
0.280,-0.18,0.11,0.07,0.23
0.290,-0.20,0.13,0.11,0.27
0.300,-0.18,0.12,0.08,0.23
0.310,-0.12,0.10,0.06,0.16
0.320,-0.10,0.13,0.11,0.20
0.330,-0.11,0.16,0.12,0.23
0.340,-0.08,0.15,0.06,0.18
0.350,-0.08,0.12,0.06,0.16
0.360,-0.13,0.13,0.04,0.19
0.370,-0.06,0.08,0.07,0.12
0.380,-0.11,0.05,0.05,0.13
0.390,-0.17,0.04,-0.05,0.18
0.400,-0.17,0.02,-0.05,0.18
0.410,-0.14,0.02,-0.04,0.15
0.420,-0.11,0.03,-0.02,0.12
0.430,-0.15,0.04,0.00,0.16
0.440,-0.18,0.11,0.05,0.22
0.450,-0.16,0.11,0.03,0.20
0.460,-0.14,0.12,-0.06,0.19
0.470,-0.18,0.09,-0.07,0.22
0.480,-0.15,0.08,-0.17,0.24
0.490,-0.10,0.04,-0.17,0.20
0.500,-0.07,0.02,-0.12,0.14
0.510,-0.04,0.03,-0.08,0.09
0.520,-0.07,0.09,-0.00,0.11
0.530,-0.04,0.11,0.14,0.18
0.540,-0.07,0.12,0.15,0.20
0.550,-0.01,0.11,0.09,0.15
0.560,-0.03,0.09,0.07,0.12
0.570,-0.09,0.10,0.03,0.14
0.580,-0.11,0.12,-0.01,0.16
0.590,-0.09,0.12,0.01,0.16
0.600,-0.09,0.10,-0.04,0.14
0.610,-0.08,0.12,-0.02,0.14
0.620,-0.13,0.16,0.07,0.22
0.630,-0.18,0.18,0.07,0.26
0.640,-0.23,0.14,0.00,0.27
0.650,-0.22,0.08,-0.03,0.24
0.660,-0.24,0.05,-0.07,0.26
0.670,-0.20,0.05,-0.01,0.21
0.680,-0.16,0.01,-0.06,0.17
0.690,-0.15,0.01,-0.18,0.24
0.700,-0.19,0.09,-0.06,0.22
0.710,-0.15,0.12,0.06,0.20
0.720,-0.17,0.14,0.05,0.23
0.730,-0.21,0.12,-0.00,0.24
0.740,-0.16,0.09,0.01,0.19
0.750,-0.20,0.07,0.04,0.21
0.760,-0.12,0.02,-0.06,0.13
0.770,-0.11,-0.03,-0.11,0.16
0.780,-0.08,-0.05,-0.12,0.15
0.790,-0.01,-0.01,-0.17,0.17
0.800,-0.02,0.03,-0.04,0.05
0.810,0.01,0.08,0.06,0.10
0.820,0.04,0.06,0.01,0.08
0.830,-0.04,0.03,-0.01,0.06
0.840,-0.09,0.04,0.07,0.12
0.850,-0.11,0.05,0.06,0.14
0.860,-0.15,0.03,0.03,0.16
0.870,-0.21,0.03,-0.00,0.21
0.880,-0.21,0.04,0.01,0.21
0.890,-0.17,0.04,0.01,0.17
0.901,-0.17,0.05,-0.03,0.18
0.910,-0.18,0.05,-0.08,0.20
0.921,-0.12,0.06,-0.01,0.13
0.931,-0.11,0.09,0.03,0.14
0.941,-0.18,0.08,0.02,0.20
0.950,-0.16,0.08,-0.01,0.18
0.960,-0.20,0.05,-0.01,0.21
0.970,-0.22,0.04,-0.01,0.23
0.981,-0.17,0.02,-0.08,0.19
0.991,-0.21,0.03,-0.14,0.25
1.001,-0.20,0.05,-0.12,0.24
1.010,-0.18,0.09,0.01,0.20
1.021,-0.15,0.11,0.08,0.20
1.031,-0.09,0.09,-0.00,0.13
1.041,-0.04,0.11,-0.06,0.13
1.051,-0.08,0.13,0.12,0.19
1.061,-0.08,0.15,0.12,0.21
1.071,-0.04,0.12,0.17,0.21
1.081,-0.02,0.04,0.09,0.10
1.091,-0.05,-0.01,0.01,0.05
1.101,0.03,-0.06,-0.03,0.08
1.111,0.05,-0.10,-0.10,0.15
1.121,0.04,-0.10,-0.09,0.14
1.131,0.01,-0.05,-0.00,0.06
1.141,0.03,0.02,0.19,0.19
1.151,-0.07,0.05,0.28,0.29
1.161,-0.06,0.01,0.14,0.16
1.171,-0.11,-0.02,0.04,0.12
1.181,-0.13,-0.03,-0.01,0.13
1.191,-0.15,-0.05,-0.04,0.16
1.201,-0.13,-0.02,-0.01,0.13
1.211,-0.18,0.01,-0.00,0.18
1.221,-0.19,0.04,0.03,0.20
1.231,-0.17,0.09,0.07,0.20
1.241,-0.15,0.07,0.01,0.16
1.251,-0.17,0.07,-0.04,0.19
1.261,-0.14,0.07,-0.06,0.17
1.271,-0.18,0.05,-0.12,0.22
1.281,-0.20,0.06,-0.12,0.25
1.291,-0.22,0.09,-0.03,0.24
1.301,-0.16,0.11,0.01,0.20
1.311,-0.17,0.09,0.01,0.19
1.321,-0.16,0.05,0.05,0.18
1.331,-0.09,0.03,0.06,0.12
1.341,-0.13,0.03,0.03,0.14
1.351,-0.13,0.06,0.03,0.14
1.361,-0.14,0.09,0.03,0.17
1.371,-0.14,0.10,0.02,0.17
1.381,-0.18,0.09,0.07,0.22
1.391,-0.23,0.10,0.10,0.27
1.401,-0.22,0.05,0.07,0.24
1.411,-0.22,0.05,0.11,0.25
1.421,-0.21,0.07,0.19,0.29
1.431,-0.14,0.06,0.16,0.22
1.441,-0.09,0.04,0.00,0.10
1.451,-0.06,0.03,-0.05,0.08
1.461,-0.04,0.11,0.04,0.12
1.471,-0.04,0.12,0.03,0.13
1.481,-0.07,0.11,0.03,0.14
1.491,-0.01,0.08,0.09,0.12
1.501,-0.08,0.05,0.05,0.10
1.511,-0.14,0.07,0.04,0.16
1.521,-0.17,0.08,0.09,0.21
1.531,-0.12,0.04,-0.01,0.13
1.541,-0.13,0.04,-0.08,0.16
1.551,-0.10,0.06,-0.02,0.12
1.561,-0.12,0.09,-0.03,0.15
1.571,-0.13,0.08,-0.03,0.16
1.581,-0.14,0.09,-0.03,0.17
1.591,-0.13,0.09,-0.08,0.18
1.601,-0.09,0.04,-0.11,0.15
1.611,0.08,0.00,-0.10,0.13
1.621,0.03,-0.03,-0.06,0.07
1.631,-0.15,-0.01,-0.06,0.16
1.641,-0.18,-0.04,-0.03,0.18
1.651,-0.19,-0.09,-0.07,0.22
1.661,-0.22,-0.13,-0.13,0.29
1.671,-0.18,-0.13,-0.14,0.27
1.681,-0.22,-0.11,-0.13,0.27
1.691,-0.22,-0.04,-0.07,0.23
1.701,-0.21,0.02,0.02,0.21
1.711,-0.21,0.04,-0.01,0.22
1.721,-0.22,0.04,-0.02,0.22
1.731,-0.12,0.08,0.03,0.15
1.741,-0.08,0.10,0.02,0.13
1.751,-0.05,0.10,0.02,0.12
1.761,0.01,0.07,0.00,0.07
1.771,0.00,0.07,-0.04,0.08
1.781,-0.02,0.07,-0.03,0.08
1.791,0.04,0.06,0.05,0.09
1.801,0.03,0.08,0.02,0.09
1.811,-0.01,0.12,0.06,0.13
1.821,0.02,0.12,0.09,0.15
1.831,0.00,0.11,0.06,0.12
1.841,0.02,0.09,0.01,0.09
1.851,0.04,0.09,0.02,0.10
1.861,0.01,0.05,-0.02,0.06
1.871,-0.01,0.03,-0.07,0.08
1.881,-0.02,0.01,-0.09,0.09
1.891,-0.08,-0.01,-0.08,0.12
1.901,-0.06,-0.02,-0.06,0.08
1.911,-0.03,-0.07,-0.04,0.08
1.921,-0.07,-0.10,-0.05,0.13
1.931,-0.09,-0.17,-0.11,0.22
1.941,-0.15,-0.24,-0.22,0.36
1.951,-0.26,-0.14,-0.24,0.38
1.961,-0.20,-0.03,-0.12,0.23
1.971,-0.19,0.05,-0.06,0.20
1.981,-0.20,0.05,-0.09,0.22
1.991,-0.17,0.07,-0.05,0.19
2.001,-0.13,0.12,0.04,0.19
2.011,-0.14,0.12,0.08,0.20
2.021,-0.10,0.14,0.07,0.19
2.031,-0.03,0.12,0.14,0.18
2.041,0.01,0.12,0.11,0.16
2.051,0.04,0.11,0.11,0.16
2.061,-0.05,0.11,0.04,0.13
2.071,-0.11,0.05,-0.03,0.12
2.081,-0.14,0.05,0.01,0.15
2.091,-0.26,0.06,0.07,0.27
2.101,-0.20,0.07,0.03,0.22
2.111,-0.18,0.05,-0.03,0.19
2.121,-0.02,-0.01,-0.03,0.04
2.131,0.07,-0.04,0.01,0.08
2.141,0.11,-0.02,0.02,0.12
2.151,0.05,-0.01,0.06,0.08
2.161,-0.04,0.01,0.06,0.08
2.171,-0.16,-0.01,0.03,0.16
2.181,-0.20,-0.01,0.04,0.20
2.191,-0.24,-0.02,0.02,0.24
2.201,-0.31,-0.02,-0.03,0.31
2.211,-0.28,-0.02,-0.05,0.29
2.221,-0.25,-0.03,-0.05,0.26
2.231,-0.20,-0.03,-0.07,0.22
2.241,-0.18,-0.02,-0.09,0.20
2.251,-0.05,-0.01,-0.01,0.05
2.261,0.02,-0.02,0.03,0.04
2.271,-0.01,-0.05,-0.07,0.08
2.281,0.02,-0.04,-0.05,0.07
2.291,-0.01,0.02,0.05,0.06
2.302,-0.05,0.04,0.07,0.10
2.311,-0.15,0.09,0.09,0.20
2.322,-0.19,0.10,0.11,0.24
2.331,-0.20,0.09,0.02,0.22
2.341,-0.21,0.04,-0.06,0.22
2.351,-0.23,0.06,-0.07,0.24
2.362,-0.17,0.06,0.00,0.18
2.372,-0.14,0.05,-0.02,0.15
2.381,-0.16,0.03,-0.09,0.18
2.391,-0.12,0.02,-0.06,0.14
2.402,-0.05,0.02,0.02,0.06
2.411,-0.02,0.05,0.04,0.07
2.422,-0.05,0.06,0.03,0.09
2.432,-0.10,0.05,0.01,0.12
2.442,-0.04,0.01,0.03,0.05
2.452,-0.05,-0.01,0.02,0.05
2.462,-0.06,0.02,-0.03,0.07
2.472,-0.07,0.04,-0.03,0.09
2.482,-0.08,0.03,-0.04,0.10
2.492,-0.05,0.03,-0.02,0.06
2.502,-0.04,0.07,0.06,0.10
2.512,-0.10,0.06,0.10,0.16
2.522,-0.13,0.02,0.10,0.17
2.531,-0.08,0.01,0.04,0.09
2.542,-0.08,0.03,0.05,0.10
2.552,-0.09,0.05,0.10,0.14
2.562,-0.06,0.07,0.07,0.12
2.572,-0.06,0.09,0.02,0.11
2.582,-0.09,0.10,-0.03,0.13
2.592,-0.13,0.11,-0.07,0.18
2.602,-0.09,0.12,-0.10,0.18
2.612,-0.12,0.09,-0.11,0.19
2.622,-0.12,0.07,-0.17,0.22
2.632,-0.12,0.03,-0.13,0.17
2.642,-0.13,0.00,-0.15,0.20
2.652,-0.18,-0.01,-0.14,0.22
2.662,-0.20,-0.01,-0.08,0.22
2.672,-0.23,-0.04,-0.09,0.25
2.682,-0.24,-0.07,-0.07,0.26
2.692,-0.25,-0.05,-0.00,0.25
2.702,-0.22,-0.03,-0.01,0.22
2.712,-0.22,-0.04,-0.08,0.23
2.722,-0.24,-0.02,-0.02,0.24
2.732,-0.19,0.03,0.07,0.21
2.742,-0.14,0.06,0.07,0.17
2.752,-0.10,0.07,0.04,0.12
2.762,-0.03,0.06,0.05,0.08
2.772,0.03,0.05,0.02,0.06
2.782,0.04,0.03,-0.01,0.05
2.792,0.03,0.05,-0.01,0.07
2.802,-0.01,0.05,0.01,0.05
2.812,-0.02,0.07,0.04,0.08
2.822,-0.02,0.06,0.05,0.08
2.832,-0.03,0.06,0.02,0.07
2.842,-0.06,0.06,0.03,0.09
2.852,-0.09,0.07,0.02,0.12
2.862,-0.11,0.09,-0.01,0.15
2.872,-0.11,0.08,-0.07,0.16
2.882,-0.10,0.05,-0.07,0.13
2.892,-0.13,0.04,-0.13,0.19
2.902,-0.15,0.01,-0.15,0.21
2.912,-0.16,-0.01,-0.06,0.17
2.922,-0.17,-0.01,-0.02,0.17
2.932,-0.22,-0.01,0.03,0.22
2.942,-0.28,-0.01,0.05,0.28
2.952,-0.25,-0.04,0.02,0.26
2.962,-0.19,-0.03,-0.07,0.21
2.972,-0.18,-0.02,-0.07,0.20
2.982,-0.14,-0.03,-0.09,0.17
2.992,-0.11,-0.03,-0.07,0.14
3.002,-0.07,-0.03,-0.04,0.09
3.012,-0.02,-0.04,-0.01,0.05
3.022,-0.01,-0.04,-0.02,0.05
3.032,-0.04,-0.02,-0.01,0.04
3.042,-0.08,-0.02,0.02,0.08
3.052,-0.11,0.01,0.05,0.12
3.062,-0.11,0.03,-0.01,0.11
3.072,-0.13,0.03,-0.07,0.16
3.082,-0.09,0.02,-0.13,0.16
3.092,-0.10,0.05,-0.11,0.16
3.102,-0.12,0.09,-0.06,0.16
3.112,-0.11,0.08,-0.09,0.16
3.122,-0.05,0.07,-0.02,0.09
3.132,-0.02,0.12,0.07,0.14
3.142,-0.07,0.11,0.08,0.15
3.152,-0.12,0.09,0.08,0.17
3.162,-0.20,0.06,0.08,0.22
3.172,-0.20,0.05,0.08,0.22
3.182,-0.19,0.05,0.11,0.23
3.192,-0.19,0.04,0.12,0.23
3.202,-0.19,0.05,0.11,0.23
3.212,-0.18,0.06,0.04,0.20
3.222,-0.16,0.03,-0.05,0.17
3.232,-0.16,0.05,-0.12,0.21
3.242,-0.12,0.05,-0.17,0.21
3.252,-0.12,0.03,-0.20,0.23
3.262,-0.07,0.03,-0.10,0.13
3.272,0.00,0.05,-0.07,0.09
3.282,-0.01,0.05,-0.07,0.08
3.292,-0.03,0.01,-0.05,0.06
3.302,-0.04,0.00,-0.05,0.06
3.312,-0.05,0.00,-0.10,0.11
3.322,-0.05,-0.02,-0.18,0.19
3.332,-0.07,-0.02,-0.11,0.13
3.342,-0.08,0.01,-0.05,0.09
3.352,-0.07,0.03,-0.03,0.08
3.362,-0.08,0.08,-0.02,0.11
3.372,-0.08,0.07,-0.02,0.11
3.382,-0.10,0.04,-0.02,0.11
3.392,-0.08,0.03,-0.03,0.08
3.402,-0.06,0.02,-0.02,0.07
3.412,-0.08,0.00,0.00,0.08
3.422,-0.09,-0.01,0.03,0.10
3.432,-0.11,0.01,0.05,0.12
3.442,-0.17,-0.02,-0.01,0.17
3.452,-0.18,-0.01,-0.03,0.18
3.462,-0.21,0.02,-0.01,0.21
3.472,-0.22,0.02,0.02,0.22
3.482,-0.21,0.00,0.04,0.22
3.492,-0.19,0.02,0.07,0.20
3.502,-0.19,-0.01,0.05,0.19
3.512,-0.13,-0.03,0.03,0.13
3.522,-0.12,-0.03,0.01,0.12
3.532,-0.09,-0.03,0.07,0.12
3.542,-0.08,-0.04,0.03,0.09
3.552,-0.06,-0.07,-0.06,0.11
3.562,-0.04,-0.07,-0.10,0.13
3.572,-0.01,-0.07,-0.15,0.16
3.582,-0.04,-0.08,-0.15,0.17
3.592,-0.06,-0.07,-0.16,0.18
3.602,-0.04,-0.07,-0.14,0.16
3.612,-0.02,-0.09,-0.09,0.13
3.622,-0.02,-0.08,-0.02,0.09
3.632,-0.03,-0.06,0.03,0.07
3.642,-0.07,-0.05,0.00,0.09
3.652,-0.10,-0.06,-0.07,0.14
3.662,-0.11,-0.07,-0.13,0.19
3.672,-0.13,-0.02,-0.15,0.20
3.682,-0.18,0.02,-0.10,0.21
3.693,-0.21,0.05,-0.08,0.23
3.702,-0.22,0.08,-0.05,0.24
3.712,-0.19,0.09,-0.04,0.21
3.722,-0.19,0.09,-0.05,0.21
3.732,-0.17,0.08,-0.05,0.20
3.742,-0.12,0.08,-0.04,0.15
3.752,-0.08,0.10,-0.03,0.13
3.762,-0.08,0.09,-0.03,0.13
3.772,-0.09,0.07,-0.06,0.12
3.783,-0.10,0.09,-0.01,0.14
3.793,-0.10,0.09,0.01,0.13
3.803,-0.07,0.05,-0.04,0.10
3.812,-0.04,0.03,-0.04,0.06
3.823,-0.02,0.04,-0.04,0.06
3.833,-0.01,0.03,-0.01,0.04
3.842,-0.02,0.03,-0.00,0.03
3.852,-0.04,0.03,0.05,0.07
3.862,-0.08,0.02,0.07,0.11
3.873,-0.11,0.03,0.13,0.17
3.882,-0.08,0.02,0.16,0.18
3.893,-0.10,0.00,0.08,0.13
3.902,-0.16,-0.00,0.08,0.18
3.913,-0.21,0.00,0.10,0.23
3.923,-0.24,0.00,0.12,0.27
3.933,-0.32,0.02,0.12,0.35
3.943,-0.34,0.01,0.09,0.35
3.953,-0.33,0.00,0.07,0.34
3.963,-0.32,0.01,0.08,0.33
3.973,-0.25,-0.00,0.04,0.25
3.983,-0.22,-0.01,-0.04,0.22
3.994,-0.15,0.00,-0.09,0.18
4.000,-0.07,-0.01,-0.13,0.15
4.010,-0.05,-0.01,-0.13,0.14
4.020,-0.09,0.01,-0.13,0.16
4.030,-0.07,0.03,-0.19,0.20
4.040,-0.05,0.03,-0.18,0.19
4.050,-0.01,0.02,-0.20,0.21
4.060,0.00,-0.01,-0.16,0.16
4.070,-0.02,0.01,-0.10,0.10
4.080,-0.04,0.02,-0.07,0.08
4.090,-0.03,0.01,-0.06,0.07
4.100,-0.04,-0.02,-0.05,0.07
4.110,-0.05,-0.00,-0.08,0.09
4.120,-0.00,-0.02,-0.10,0.10
4.130,-0.00,-0.01,-0.09,0.09
4.140,-0.01,-0.03,-0.02,0.04
4.150,-0.03,-0.03,-0.03,0.05
4.160,-0.10,-0.01,0.00,0.10
4.170,-0.13,-0.01,0.05,0.14
4.180,-0.13,-0.00,0.04,0.14
4.190,-0.12,-0.00,0.04,0.12
4.200,-0.13,-0.00,0.05,0.14
4.210,-0.13,-0.01,0.01,0.13
4.220,-0.16,-0.00,-0.05,0.17
4.230,-0.16,-0.01,-0.04,0.17
4.240,-0.10,-0.04,-0.04,0.11
4.250,-0.09,-0.02,0.03,0.10
4.260,-0.10,-0.00,0.08,0.13
4.270,-0.11,0.01,0.10,0.15
4.280,-0.14,0.01,0.12,0.18
4.290,-0.16,-0.01,0.07,0.17
4.300,-0.11,-0.03,0.00,0.11
4.310,-0.11,-0.05,-0.06,0.14
4.320,-0.07,-0.04,-0.06,0.10
4.330,-0.07,-0.00,-0.04,0.08
4.340,-0.09,-0.01,0.02,0.09
4.350,-0.08,0.01,0.07,0.10
4.361,-0.05,0.03,0.05,0.08
4.370,-0.06,0.01,0.03,0.07
4.380,-0.08,0.02,0.01,0.08
4.390,-0.14,0.02,-0.01,0.14
4.400,-0.15,0.01,-0.02,0.16
4.410,-0.18,0.01,-0.00,0.18
4.420,-0.19,0.04,0.01,0.20
4.430,-0.16,0.04,0.00,0.17
4.440,-0.11,0.03,-0.07,0.14
4.450,-0.10,0.01,-0.10,0.14
4.460,-0.10,0.02,-0.07,0.12
4.470,-0.08,0.06,-0.05,0.11
4.480,-0.14,0.05,-0.03,0.15
4.490,-0.17,0.03,-0.02,0.17
4.500,-0.16,0.03,-0.03,0.16
4.510,-0.12,0.02,-0.04,0.13
4.520,-0.08,-0.00,-0.05,0.09
4.530,-0.06,-0.00,-0.04,0.07
4.540,-0.08,-0.01,-0.02,0.08
4.550,-0.11,-0.00,-0.05,0.12
4.560,-0.13,-0.01,-0.09,0.16
4.570,-0.13,-0.03,-0.05,0.15
4.580,-0.16,-0.01,-0.03,0.17
4.590,-0.20,-0.02,0.01,0.20
4.600,-0.15,-0.02,0.03,0.15
4.610,-0.15,0.00,0.02,0.15
4.620,-0.14,-0.00,0.03,0.15
4.630,-0.16,-0.04,-0.02,0.17
4.640,-0.15,-0.02,-0.08,0.17
4.650,-0.13,-0.03,-0.16,0.21
4.660,-0.12,-0.02,-0.11,0.16
4.670,-0.16,-0.02,0.01,0.16
4.681,-0.09,0.02,0.03,0.10
4.690,-0.11,-0.01,0.02,0.11
4.701,-0.15,-0.05,0.03,0.16
4.711,-0.16,-0.06,-0.02,0.17
4.721,-0.16,-0.06,-0.06,0.18
4.731,-0.12,-0.05,-0.01,0.13
4.741,-0.11,-0.02,0.05,0.12
4.751,-0.07,-0.01,0.08,0.11
4.761,-0.04,-0.03,0.08,0.10
4.771,-0.04,-0.03,0.08,0.09
4.781,-0.07,-0.03,0.04,0.08
4.791,-0.04,-0.04,-0.05,0.07
4.801,-0.04,-0.03,-0.04,0.06
4.811,-0.08,0.00,0.01,0.08
4.821,-0.06,0.02,0.02,0.07
4.831,-0.08,0.03,0.01,0.09
4.841,-0.11,0.06,0.00,0.12
4.851,-0.12,0.05,-0.02,0.13
4.861,-0.16,0.04,0.01,0.17
4.871,-0.15,0.06,0.02,0.16
4.881,-0.16,0.07,0.03,0.18
4.891,-0.14,0.07,-0.02,0.15
4.901,-0.11,0.05,-0.06,0.14
4.911,-0.08,0.06,-0.05,0.11
4.921,-0.09,0.05,-0.08,0.13
4.931,-0.11,0.04,-0.08,0.15
4.941,-0.12,0.05,-0.06,0.14
4.951,-0.13,0.07,-0.03,0.15
4.961,-0.12,0.08,-0.00,0.15
4.971,-0.10,0.09,-0.02,0.14
4.981,-0.11,0.06,-0.09,0.16
4.991,-0.14,0.05,-0.12,0.19
5.001,-0.15,0.03,-0.09,0.18
5.011,-0.13,0.03,-0.09,0.17
5.021,-0.14,0.02,-0.08,0.16
5.031,-0.11,0.01,-0.06,0.13
5.041,-0.08,0.01,-0.06,0.10
5.051,-0.04,-0.01,-0.06,0.07
5.061,-0.07,-0.01,-0.06,0.09
5.071,-0.07,-0.02,-0.09,0.11
5.081,-0.08,-0.03,-0.08,0.12
5.091,-0.09,-0.05,-0.06,0.12
5.101,-0.10,-0.04,-0.04,0.12
5.111,-0.12,-0.02,0.01,0.12
5.121,-0.13,-0.04,0.07,0.15
5.131,-0.12,-0.03,0.11,0.17
5.141,-0.12,-0.03,0.09,0.15
5.151,-0.09,-0.02,0.05,0.11
5.161,-0.10,-0.05,0.00,0.11
5.171,-0.08,-0.08,-0.07,0.13
5.181,-0.08,-0.08,-0.06,0.13
5.191,-0.06,-0.06,-0.00,0.08
5.201,-0.05,-0.05,0.03,0.07
5.211,-0.04,-0.01,0.04,0.06
5.221,-0.07,-0.00,0.06,0.09
5.231,-0.10,0.02,0.09,0.14
5.241,-0.11,0.04,0.05,0.13
5.251,-0.11,0.03,-0.01,0.12
5.261,-0.08,0.02,-0.08,0.12
5.271,-0.08,0.05,-0.04,0.10
5.281,-0.07,0.05,0.01,0.08
5.291,-0.06,0.05,0.02,0.08
5.301,-0.10,0.05,0.05,0.13
5.311,-0.12,0.06,0.04,0.14
5.321,-0.15,0.02,-0.02,0.15
5.331,-0.18,0.02,-0.04,0.18
5.341,-0.17,0.01,-0.07,0.18
5.351,-0.17,0.00,-0.11,0.20
5.361,-0.17,-0.00,-0.10,0.19
5.371,-0.19,0.02,-0.06,0.20
5.381,-0.18,0.03,-0.02,0.19
5.391,-0.19,0.02,-0.02,0.20
5.401,-0.16,-0.01,-0.05,0.17
5.411,-0.13,-0.01,-0.02,0.13
5.421,-0.12,-0.00,-0.01,0.12
5.431,-0.08,-0.01,-0.05,0.10
5.441,-0.09,-0.02,-0.05,0.10
5.451,-0.10,-0.03,-0.05,0.11
5.461,-0.11,-0.01,-0.02,0.11
5.471,-0.10,0.01,-0.04,0.11
5.481,-0.05,-0.02,-0.14,0.15
5.491,-0.12,-0.01,-0.13,0.18
5.501,-0.13,-0.00,-0.04,0.14
5.511,-0.13,0.01,0.03,0.13
5.521,-0.10,0.03,0.02,0.10
5.531,-0.08,0.03,-0.05,0.10
5.541,-0.12,-0.01,-0.05,0.13
5.551,-0.19,0.02,0.02,0.19
5.561,-0.18,0.02,0.04,0.18
5.571,-0.15,0.02,-0.00,0.15
5.581,-0.13,-0.00,-0.05,0.13
5.591,-0.08,0.01,-0.03,0.09
5.601,-0.11,0.01,0.01,0.11
5.611,-0.06,0.01,-0.04,0.08
5.621,-0.04,-0.01,-0.12,0.13
5.631,-0.07,-0.01,-0.11,0.12
5.641,-0.11,0.01,-0.02,0.11
5.651,-0.10,0.03,0.05,0.12
5.661,-0.13,0.03,0.04,0.14
5.671,-0.18,0.02,0.05,0.19
5.681,-0.19,0.01,0.06,0.20
5.691,-0.20,0.02,0.08,0.22
5.701,-0.18,0.02,0.07,0.20
5.711,-0.13,0.03,0.04,0.14
5.721,-0.10,0.01,0.01,0.10
5.731,-0.10,0.01,-0.03,0.10
5.741,-0.10,0.02,-0.02,0.10
5.751,-0.04,-0.00,-0.04,0.06
5.761,-0.02,-0.01,-0.05,0.05
5.771,-0.01,-0.01,-0.04,0.04
5.781,0.01,0.00,-0.04,0.04
5.791,0.01,-0.00,-0.09,0.09
5.801,-0.04,0.01,-0.09,0.09
5.811,-0.08,0.00,-0.07,0.10
5.821,-0.13,0.01,-0.07,0.15
5.831,-0.15,0.01,-0.07,0.16
5.841,-0.15,-0.00,-0.06,0.17
5.851,-0.16,0.01,-0.02,0.17
5.861,-0.16,0.01,-0.01,0.16
5.871,-0.17,0.01,-0.01,0.17
5.881,-0.21,-0.00,-0.06,0.22
5.891,-0.20,-0.00,-0.04,0.20
5.901,-0.17,-0.03,-0.04,0.18
5.911,-0.08,0.00,-0.02,0.09
5.921,-0.06,0.02,0.03,0.07
5.931,-0.09,0.00,0.01,0.09
5.941,-0.08,-0.01,0.01,0.08
5.951,-0.07,-0.01,0.03,0.08
5.962,-0.09,-0.01,0.07,0.11
5.971,-0.05,0.01,0.11,0.12
5.982,-0.02,0.01,0.08,0.09
5.992,-0.05,-0.02,0.03,0.07
6.001,-0.07,-0.03,0.02,0.08
6.011,-0.10,0.02,0.04,0.11
6.021,-0.13,0.00,0.07,0.15
6.031,-0.15,0.01,0.04,0.16
6.041,-0.17,-0.00,0.02,0.17
6.052,-0.14,-0.00,0.06,0.16
6.061,-0.14,0.01,0.05,0.15
6.072,-0.16,0.00,0.02,0.17
6.082,-0.17,-0.01,-0.01,0.17
6.092,-0.25,0.00,-0.05,0.25
6.102,-0.21,-0.00,-0.02,0.21
6.112,-0.17,0.00,-0.04,0.18
6.122,-0.13,-0.02,-0.05,0.14
6.132,-0.06,-0.05,-0.03,0.08
6.142,-0.00,-0.03,-0.06,0.07
6.152,-0.01,-0.04,-0.06,0.08
6.162,-0.04,-0.03,-0.07,0.09
6.172,-0.06,-0.04,-0.08,0.11
6.182,-0.08,-0.05,-0.07,0.12
6.192,-0.10,-0.04,-0.07,0.13
6.202,-0.14,-0.03,-0.05,0.15
6.212,-0.13,-0.03,-0.06,0.15
6.222,-0.13,-0.04,-0.10,0.17
6.232,-0.12,-0.05,-0.11,0.17
6.242,-0.07,-0.05,-0.07,0.11
6.252,-0.09,-0.01,-0.05,0.10
6.262,-0.09,0.00,-0.05,0.10
6.272,-0.10,0.00,-0.07,0.12
6.282,-0.13,0.05,-0.05,0.14
6.292,-0.14,0.03,-0.01,0.15
6.302,-0.13,0.01,-0.04,0.14
6.312,-0.13,-0.01,-0.03,0.14
6.322,-0.14,-0.02,-0.00,0.14
6.332,-0.14,0.05,0.02,0.15
6.342,-0.12,0.04,0.02,0.13
6.352,-0.11,0.03,-0.05,0.13
6.362,-0.13,0.03,-0.02,0.13
6.372,-0.16,0.05,0.09,0.19
6.382,-0.14,0.05,0.10,0.18
6.392,-0.11,0.05,0.09,0.15
6.402,-0.10,0.06,0.08,0.14
6.412,-0.08,0.01,0.08,0.11
6.422,-0.10,0.01,0.02,0.10
6.432,-0.08,-0.01,-0.01,0.09
6.442,-0.08,-0.03,0.03,0.09
6.452,-0.08,-0.01,0.03,0.08
6.462,-0.14,-0.01,0.03,0.14
6.472,-0.19,-0.03,0.02,0.19
6.482,-0.13,-0.02,-0.01,0.13
6.492,-0.08,-0.02,-0.02,0.09
6.502,-0.12,0.02,-0.01,0.12
6.512,-0.06,0.02,-0.01,0.06
6.522,-0.03,-0.00,-0.01,0.03
6.532,-0.02,0.02,-0.01,0.03
6.542,-0.05,0.01,-0.00,0.05
6.552,-0.04,-0.01,-0.03,0.05
6.562,-0.06,0.01,0.01,0.06
6.572,-0.05,0.00,0.05,0.07
6.582,-0.14,0.02,-0.03,0.15
6.592,-0.09,-0.03,-0.03,0.10
6.602,-0.14,-0.03,-0.05,0.15
6.612,-0.13,0.01,-0.07,0.15
6.622,-0.13,-0.02,-0.05,0.14
6.632,-0.11,0.00,-0.02,0.11
6.642,-0.12,0.02,0.01,0.12
6.652,-0.16,0.03,0.01,0.17
6.662,-0.19,0.00,-0.01,0.19
6.672,-0.21,0.00,-0.00,0.21
6.682,-0.20,-0.00,-0.01,0.20
6.692,-0.17,-0.01,-0.02,0.17
6.702,-0.12,-0.01,-0.02,0.12
6.712,-0.09,0.00,-0.03,0.10
6.722,-0.09,0.00,-0.04,0.09
6.732,-0.08,0.00,-0.07,0.10
6.742,-0.10,-0.01,-0.07,0.12
6.752,-0.09,-0.01,-0.03,0.09
6.762,-0.11,-0.00,0.00,0.11
6.772,-0.11,-0.01,0.04,0.12
6.782,-0.10,-0.00,0.09,0.13
6.792,-0.10,0.02,0.07,0.13
6.802,-0.08,0.01,0.04,0.09
6.812,-0.10,-0.02,0.01,0.10
6.822,-0.09,-0.02,0.00,0.09
6.832,-0.08,-0.01,0.04,0.09
6.842,-0.08,0.02,0.03,0.08
6.852,-0.08,-0.02,-0.01,0.09
6.862,-0.11,-0.04,-0.04,0.12
6.872,-0.15,-0.02,-0.01,0.16
6.882,-0.20,-0.00,0.02,0.20
6.892,-0.18,-0.02,-0.04,0.19
6.902,-0.15,-0.04,-0.09,0.18
6.912,-0.13,-0.00,-0.04,0.14
6.922,-0.17,0.03,0.02,0.17
6.932,-0.19,0.03,0.00,0.19
6.942,-0.14,0.03,-0.07,0.16
6.952,-0.13,-0.03,-0.15,0.20
6.962,-0.16,-0.01,-0.13,0.21
6.972,-0.16,0.01,-0.02,0.16
6.982,-0.14,0.01,0.04,0.14
6.992,-0.11,0.02,0.01,0.12
7.002,-0.13,0.01,-0.05,0.14
7.012,-0.09,-0.02,-0.10,0.14
7.022,-0.07,-0.04,-0.12,0.14
7.032,-0.05,-0.01,-0.01,0.06
7.042,-0.05,0.04,0.07,0.10
7.052,-0.08,0.02,0.03,0.09
7.062,-0.10,0.05,0.03,0.11
7.072,-0.12,0.01,-0.07,0.13
7.082,-0.10,-0.03,-0.11,0.16
7.092,-0.10,0.01,0.03,0.10
7.102,-0.08,0.05,0.11,0.14
7.112,-0.06,0.02,0.07,0.09
7.122,-0.13,0.01,0.03,0.13
7.132,-0.16,-0.02,-0.03,0.16
7.142,-0.16,-0.04,-0.12,0.21
7.152,-0.15,-0.01,0.02,0.15
7.162,-0.09,0.03,0.14,0.17
7.172,-0.07,0.04,0.10,0.13
7.182,-0.07,0.03,-0.00,0.08
7.192,-0.09,-0.00,-0.09,0.12
7.202,-0.12,-0.04,-0.15,0.19
7.212,-0.11,-0.03,-0.07,0.14
7.222,-0.12,0.00,0.06,0.14
7.232,-0.17,0.02,0.08,0.19
7.242,-0.13,0.01,0.02,0.13
7.252,-0.11,-0.01,-0.09,0.15
7.262,-0.11,-0.05,-0.18,0.22
7.272,-0.10,-0.04,-0.06,0.12
7.282,-0.11,-0.01,0.04,0.12
7.292,-0.09,-0.01,0.05,0.10
7.302,-0.06,-0.03,0.06,0.09
7.312,-0.09,-0.01,0.05,0.10
7.322,-0.11,-0.02,0.01,0.12
7.332,-0.10,-0.04,-0.06,0.12
7.342,-0.07,-0.03,-0.07,0.10
7.352,-0.07,-0.03,-0.03,0.08
7.362,-0.11,-0.02,0.04,0.12
7.372,-0.09,-0.01,0.03,0.10
7.382,-0.09,-0.01,-0.02,0.09
7.392,-0.10,-0.01,-0.03,0.10
7.403,-0.07,0.02,-0.05,0.09
7.413,-0.08,0.03,-0.09,0.13
7.422,-0.14,0.02,-0.10,0.17
7.433,-0.17,0.01,-0.08,0.19
7.442,-0.17,0.02,0.01,0.17
7.452,-0.14,0.05,0.10,0.18
7.462,-0.13,0.05,0.08,0.16
7.473,-0.18,0.04,0.04,0.18
7.482,-0.18,0.01,-0.03,0.19
7.492,-0.16,-0.01,-0.10,0.19
7.502,-0.14,-0.02,-0.11,0.18
7.512,-0.14,-0.03,-0.06,0.16
7.522,-0.10,-0.02,-0.03,0.11
7.532,-0.11,-0.00,-0.01,0.11
7.542,-0.07,0.01,0.01,0.07
7.553,-0.06,-0.00,-0.06,0.08
7.562,-0.09,-0.02,-0.09,0.13
7.573,-0.07,-0.02,-0.04,0.08
7.582,-0.08,-0.00,0.02,0.08
7.593,-0.10,-0.01,0.05,0.11
7.603,-0.14,-0.04,0.02,0.15
7.613,-0.13,-0.02,0.02,0.13
7.623,-0.11,-0.03,0.03,0.12
7.633,-0.13,-0.03,0.01,0.13
7.643,-0.13,-0.05,-0.00,0.14
7.653,-0.12,-0.05,-0.01,0.13
7.663,-0.12,-0.03,-0.03,0.13
7.673,-0.12,-0.02,-0.03,0.13
7.683,-0.13,-0.01,-0.02,0.14
7.693,-0.11,0.00,-0.01,0.11
7.703,-0.11,0.01,-0.00,0.11
7.713,-0.10,0.00,0.01,0.10
7.723,-0.10,0.01,-0.01,0.10
7.733,-0.13,-0.00,-0.03,0.14
7.743,-0.14,-0.01,0.00,0.14
7.753,-0.11,0.02,0.03,0.12
7.763,-0.10,0.02,0.04,0.11
7.773,-0.11,0.01,-0.03,0.11
7.783,-0.08,-0.01,-0.06,0.10
7.793,-0.08,0.02,-0.04,0.09
7.803,-0.09,0.02,0.04,0.10
7.813,-0.07,0.04,0.03,0.09
7.823,-0.07,0.03,0.05,0.09
7.833,-0.06,-0.01,0.09,0.11
7.843,-0.11,0.07,0.07,0.15
7.853,-0.11,0.02,0.06,0.13
7.863,-0.13,-0.00,-0.01,0.13
7.873,-0.14,0.04,-0.06,0.16
7.883,-0.16,0.03,-0.02,0.16
7.893,-0.15,0.04,-0.01,0.16
7.903,-0.15,0.04,-0.01,0.16
7.913,-0.17,0.04,0.02,0.17
7.923,-0.15,0.02,0.03,0.15
7.933,-0.13,0.01,0.03,0.13
7.943,-0.12,-0.01,0.02,0.12
7.953,-0.11,-0.02,0.01,0.11
7.963,-0.09,-0.04,0.01,0.10
7.973,-0.09,-0.02,-0.01,0.10
7.983,-0.10,-0.03,-0.03,0.11
7.993,-0.11,-0.04,-0.05,0.13
8.003,-0.11,-0.04,-0.03,0.12
8.013,-0.12,-0.04,-0.05,0.13
8.023,-0.12,-0.04,-0.05,0.14
8.033,-0.15,-0.04,-0.00,0.16
8.043,-0.15,-0.02,-0.03,0.15
8.053,-0.13,0.01,-0.00,0.13
8.063,-0.14,0.01,0.04,0.14
8.073,-0.12,0.02,0.03,0.13
8.083,-0.12,-0.00,-0.03,0.12
8.093,-0.14,0.03,-0.05,0.15
8.103,-0.11,0.05,-0.04,0.12
8.113,-0.10,0.05,0.01,0.11
8.123,-0.08,0.05,0.02,0.09
8.133,-0.08,0.06,0.03,0.10
8.143,-0.08,0.06,0.06,0.12
8.153,-0.09,0.05,0.04,0.11
8.163,-0.08,0.06,-0.02,0.10
8.173,-0.06,0.04,-0.03,0.08
8.183,-0.10,0.05,0.01,0.11
8.193,-0.11,0.03,0.02,0.12
8.203,-0.15,0.04,0.02,0.16
8.213,-0.14,0.04,0.03,0.14
8.223,-0.17,0.02,0.04,0.17
8.233,-0.15,0.03,0.04,0.16
8.243,-0.13,0.03,0.05,0.14
8.253,-0.12,0.04,0.06,0.14
8.263,-0.09,0.05,0.07,0.13
8.273,-0.08,0.04,0.05,0.10
8.283,-0.07,0.02,0.03,0.08
8.293,-0.09,0.01,0.04,0.10
8.303,-0.12,0.00,0.01,0.12
8.313,-0.11,0.01,0.02,0.11
8.323,-0.12,0.02,0.02,0.12
8.333,-0.16,0.01,-0.00,0.16
8.343,-0.17,-0.00,-0.04,0.18
8.353,-0.18,-0.00,-0.03,0.18
8.363,-0.17,-0.02,-0.01,0.18
8.377,-0.17,-0.03,-0.02,0.17
8.387,-0.17,-0.01,-0.04,0.17
8.397,-0.17,-0.05,-0.05,0.19
8.407,-0.19,-0.03,-0.07,0.20
8.417,-0.15,-0.04,-0.03,0.16
8.427,-0.12,-0.03,-0.02,0.13
8.437,-0.08,-0.04,-0.06,0.11
8.447,-0.07,-0.05,-0.08,0.12
8.457,-0.08,-0.03,-0.06,0.11
8.467,-0.04,-0.01,-0.04,0.06
8.477,-0.04,0.01,-0.04,0.05
8.487,-0.04,0.03,-0.00,0.05
8.497,-0.03,0.02,0.04,0.06
8.507,-0.04,0.03,0.08,0.09
8.517,-0.06,0.04,0.11,0.13
8.527,-0.08,0.04,0.08,0.12
8.537,-0.11,0.05,0.06,0.14
8.547,-0.13,0.05,0.02,0.14
8.557,-0.11,0.03,-0.02,0.12
8.567,-0.08,0.05,-0.02,0.10
8.577,-0.12,0.07,-0.02,0.14
8.587,-0.21,0.11,0.02,0.24
8.597,-0.12,0.09,-0.00,0.15
8.607,-0.12,0.07,-0.03,0.14
8.617,-0.11,0.07,-0.04,0.14
8.627,-0.07,0.04,-0.09,0.13
8.637,-0.11,0.04,-0.07,0.14
8.647,-0.15,0.05,-0.08,0.18
8.657,-0.14,0.04,-0.11,0.18
8.667,-0.16,0.05,-0.05,0.18
8.677,-0.21,0.06,-0.03,0.22
8.687,-0.20,0.04,0.00,0.20
8.697,-0.15,0.04,-0.03,0.16
8.707,-0.11,-0.00,-0.06,0.12
8.717,-0.04,-0.03,-0.06,0.07
8.727,-0.02,-0.02,-0.03,0.04
8.737,-0.03,-0.05,-0.05,0.08
8.747,-0.04,-0.08,-0.04,0.10
8.757,-0.06,-0.05,0.01,0.09
8.767,-0.07,-0.03,0.04,0.09
8.777,-0.05,-0.05,0.04,0.08
8.787,-0.07,-0.04,0.01,0.08
8.797,-0.12,-0.04,0.02,0.13
8.807,-0.13,-0.02,0.02,0.14
8.817,-0.15,-0.01,0.05,0.16
8.827,-0.14,-0.01,0.08,0.16
8.837,-0.16,-0.00,0.05,0.17
8.847,-0.18,0.01,0.03,0.18
8.857,-0.16,0.00,0.04,0.16
8.867,-0.15,0.02,0.03,0.15
8.877,-0.13,0.02,0.00,0.13
8.887,-0.10,0.01,-0.03,0.11
8.897,-0.07,-0.01,-0.06,0.09
8.907,-0.05,-0.02,-0.05,0.07
8.917,-0.05,-0.00,-0.00,0.06
8.927,-0.05,-0.01,0.02,0.06
8.937,-0.09,-0.02,-0.01,0.09
8.947,-0.09,-0.04,-0.06,0.11
8.957,-0.12,-0.03,-0.06,0.13
8.967,-0.12,-0.02,-0.01,0.12
8.977,-0.12,-0.03,-0.00,0.12
8.987,-0.14,-0.01,-0.05,0.15
8.997,-0.17,0.01,-0.04,0.17
9.007,-0.18,0.02,-0.05,0.19
9.017,-0.17,0.03,-0.09,0.20
9.027,-0.15,0.01,-0.09,0.17
9.037,-0.12,-0.00,-0.08,0.15
9.047,-0.15,0.03,-0.07,0.17
9.057,-0.16,0.01,-0.08,0.18
9.067,-0.11,-0.00,-0.07,0.13
9.077,-0.12,0.00,-0.06,0.13
9.087,-0.09,-0.01,-0.03,0.09
9.097,-0.09,-0.03,-0.01,0.10
9.107,-0.09,-0.05,-0.06,0.12
9.117,-0.11,-0.06,-0.08,0.15
9.127,-0.11,-0.08,-0.07,0.15
9.137,-0.10,-0.07,-0.03,0.13
9.147,-0.10,-0.10,-0.02,0.14
9.157,-0.11,-0.08,-0.02,0.14
9.167,-0.13,-0.08,-0.01,0.15
9.177,-0.14,-0.06,0.02,0.15
9.187,-0.14,-0.05,-0.01,0.15
9.197,-0.11,-0.03,0.01,0.12
9.207,-0.11,-0.03,-0.03,0.12
9.217,-0.12,-0.02,-0.09,0.15
9.228,-0.12,-0.02,-0.11,0.16
9.237,-0.18,-0.03,-0.04,0.19
9.247,-0.21,0.00,-0.01,0.21
9.257,-0.24,0.00,-0.02,0.24
9.267,-0.20,-0.01,-0.05,0.21
9.277,-0.14,-0.04,-0.06,0.15
9.287,-0.14,-0.03,-0.06,0.16
9.297,-0.16,-0.02,-0.04,0.17
9.307,-0.15,-0.00,0.00,0.15
9.317,-0.13,-0.01,0.02,0.13
9.327,-0.10,-0.03,-0.04,0.11
9.337,-0.03,-0.02,-0.02,0.04
9.347,-0.01,-0.01,-0.01,0.02
9.357,-0.00,0.00,0.02,0.02
9.368,-0.01,0.00,0.06,0.06
9.377,-0.02,0.02,0.06,0.06
9.387,-0.02,0.03,0.01,0.03
9.397,-0.04,0.01,-0.01,0.04
9.407,-0.09,0.03,0.02,0.10
9.417,-0.11,0.05,0.02,0.12
9.427,-0.11,0.03,-0.01,0.12
9.438,-0.09,0.02,0.01,0.09
9.448,-0.13,0.02,0.04,0.14
9.458,-0.11,0.03,0.05,0.12
9.468,-0.13,0.01,0.04,0.14
9.478,-0.13,0.06,0.03,0.14
9.488,-0.14,0.04,0.01,0.15
9.498,-0.11,0.01,-0.07,0.13
9.508,-0.12,0.03,0.05,0.13
9.518,-0.13,0.04,0.09,0.16
9.528,-0.07,0.03,0.07,0.10
9.538,-0.06,0.01,0.04,0.07
9.548,-0.02,-0.02,0.02,0.03
9.558,-0.01,-0.04,-0.05,0.06
9.568,-0.07,-0.03,-0.04,0.08
9.578,-0.14,-0.04,-0.05,0.15
9.588,-0.14,-0.05,-0.08,0.16
9.598,-0.16,-0.04,-0.07,0.18
9.608,-0.16,-0.02,-0.07,0.17
9.618,-0.13,-0.02,-0.06,0.14
9.628,-0.13,-0.03,-0.03,0.14
9.638,-0.14,-0.01,-0.02,0.15
9.648,-0.17,-0.01,-0.05,0.18
9.658,-0.14,-0.01,-0.06,0.15
9.668,-0.13,-0.00,-0.04,0.14
9.678,-0.14,-0.00,0.01,0.14
9.688,-0.13,0.01,0.02,0.13
9.698,-0.13,0.01,0.01,0.13
9.708,-0.12,0.01,-0.02,0.12
9.718,-0.13,0.01,-0.01,0.13
9.728,-0.12,0.00,0.01,0.12
9.738,-0.13,-0.00,0.00,0.13
9.748,-0.10,0.01,-0.00,0.11
9.758,-0.08,0.01,0.01,0.08
9.768,-0.12,0.01,0.03,0.12
9.778,-0.14,0.01,0.06,0.15
9.788,-0.14,-0.01,0.01,0.14
9.798,-0.14,-0.01,0.02,0.14
9.808,-0.16,0.01,0.07,0.17
9.818,-0.13,0.02,0.08,0.16
9.828,-0.12,-0.00,0.07,0.14
9.838,-0.12,0.02,0.04,0.13
9.848,-0.16,0.02,0.02,0.16
9.858,-0.13,0.02,-0.01,0.13
9.868,-0.08,0.01,-0.00,0.08
9.878,-0.04,0.05,0.01,0.07
9.888,-0.05,0.03,0.01,0.06
9.898,-0.06,-0.01,-0.05,0.07
9.908,-0.12,0.01,-0.01,0.12
9.918,-0.10,0.01,0.04,0.11
9.928,-0.04,0.03,0.06,0.08
9.938,-0.01,-0.01,-0.01,0.02
9.948,-0.06,-0.02,-0.09,0.12
9.958,-0.13,-0.01,-0.03,0.13
9.968,-0.17,-0.00,0.04,0.17
9.978,-0.18,0.01,0.06,0.19
9.988,-0.13,-0.01,0.01,0.13
9.998,-0.08,-0.01,-0.08,0.11
10.008,-0.07,-0.02,-0.10,0.12
10.018,-0.09,-0.00,-0.05,0.11
10.028,-0.11,0.01,-0.04,0.12
10.038,-0.10,-0.03,-0.07,0.12
10.048,-0.10,-0.02,-0.10,0.15
10.058,-0.11,-0.04,-0.09,0.14
10.068,-0.12,-0.03,-0.06,0.14
10.078,-0.17,-0.03,-0.05,0.18
10.088,-0.21,-0.02,-0.04,0.22
10.098,-0.18,-0.02,-0.03,0.19
10.108,-0.16,-0.05,-0.03,0.17
10.118,-0.15,-0.04,-0.03,0.16
10.128,-0.14,-0.03,-0.03,0.15
10.138,-0.11,-0.05,-0.04,0.13
10.148,-0.11,-0.03,-0.02,0.11
10.158,-0.08,-0.02,-0.00,0.08
10.168,-0.07,-0.03,0.03,0.09
10.178,-0.07,-0.01,0.03,0.08
10.188,-0.07,-0.01,0.02,0.08
10.198,-0.09,-0.01,0.04,0.10
10.208,-0.07,0.02,0.05,0.09
10.218,-0.07,0.03,0.03,0.08
10.228,-0.08,0.04,0.05,0.11
10.238,-0.07,0.04,0.08,0.12
10.248,-0.08,0.03,0.04,0.09
10.258,-0.11,0.01,0.00,0.11
10.268,-0.12,0.02,-0.00,0.12
10.278,-0.13,0.02,0.03,0.13
10.288,-0.14,0.01,0.02,0.14
10.298,-0.16,0.00,-0.01,0.16
10.308,-0.15,0.00,-0.02,0.16
10.318,-0.14,0.00,-0.03,0.15
10.328,-0.14,0.01,-0.02,0.14
10.338,-0.17,0.02,-0.01,0.17
10.348,-0.18,0.04,0.01,0.18
10.358,-0.20,0.03,0.01,0.21
10.368,-0.18,0.05,0.04,0.19
10.378,-0.13,0.03,0.01,0.14
10.388,-0.09,0.02,0.03,0.10
10.398,-0.06,-0.01,0.01,0.06
10.408,-0.05,-0.00,-0.01,0.05
10.418,-0.04,-0.00,0.01,0.04
10.428,-0.08,-0.00,-0.02,0.09
10.438,-0.09,-0.01,-0.08,0.12
10.448,-0.08,-0.01,-0.07,0.11
10.458,-0.12,0.01,-0.04,0.13
10.468,-0.15,0.02,-0.01,0.15
10.478,-0.14,-0.01,-0.03,0.15
10.488,-0.19,0.01,0.01,0.19
10.498,-0.17,-0.02,-0.01,0.17
10.508,-0.13,-0.03,-0.17,0.22
10.518,-0.08,0.00,-0.13,0.15
10.528,-0.21,-0.06,-0.06,0.22
10.538,-0.06,0.01,-0.15,0.16
10.548,-0.19,-0.02,-0.00,0.19
10.558,-0.12,-0.05,0.05,0.14
10.568,-0.09,0.02,-0.02,0.10
10.578,-0.08,-0.02,0.09,0.12
10.588,-0.06,0.01,0.08,0.10
10.598,-0.05,0.00,0.07,0.09
10.608,-0.11,0.00,0.03,0.11
10.618,-0.10,0.04,0.00,0.11
10.628,-0.12,0.04,-0.00,0.13
10.638,-0.15,0.04,-0.03,0.16
10.648,-0.12,0.03,0.01,0.13
10.658,-0.10,0.03,0.07,0.13
10.668,-0.12,0.04,0.07,0.14
10.678,-0.12,0.02,0.05,0.13
10.688,-0.19,0.01,0.02,0.19
10.698,-0.21,0.02,0.02,0.21
10.709,-0.20,0.02,0.02,0.20
10.719,-0.21,0.02,0.04,0.21
10.728,-0.15,0.02,-0.00,0.15
10.738,-0.09,0.00,-0.04,0.10
10.749,-0.02,-0.01,-0.00,0.02
10.759,0.01,0.00,0.01,0.02
10.768,0.04,-0.00,-0.03,0.05
10.779,0.02,-0.02,-0.04,0.04
10.788,0.02,-0.04,-0.02,0.04
10.798,-0.00,-0.03,-0.03,0.04
10.809,-0.05,-0.03,-0.04,0.07
10.819,-0.08,-0.02,-0.06,0.10
10.828,-0.16,-0.01,-0.07,0.17
10.838,-0.20,0.01,-0.07,0.22
10.849,-0.21,0.02,-0.03,0.21
10.858,-0.20,0.05,-0.02,0.21
10.869,-0.19,0.03,-0.03,0.19
10.878,-0.15,0.04,-0.02,0.16
10.889,-0.13,0.04,-0.01,0.14
10.899,-0.16,0.03,-0.09,0.19
10.909,-0.17,0.03,-0.10,0.20
10.919,-0.15,0.06,-0.05,0.17
10.928,-0.10,0.06,-0.00,0.12
10.938,-0.11,0.04,0.04,0.12
10.949,-0.09,0.04,0.04,0.11
10.959,-0.09,0.04,0.02,0.10
10.969,-0.09,0.01,0.04,0.10
10.978,-0.09,0.02,0.07,0.12
10.989,-0.07,0.01,0.04,0.08
10.998,-0.06,-0.03,-0.01,0.06
11.008,-0.05,-0.04,-0.03,0.07
11.019,-0.04,-0.03,0.00,0.05
11.029,-0.04,-0.03,0.05,0.07
11.039,-0.06,-0.04,0.08,0.11
11.049,-0.09,-0.04,0.07,0.12
11.059,-0.11,-0.03,0.05,0.13
11.069,-0.13,-0.02,-0.00,0.14
11.079,-0.13,-0.06,-0.06,0.16
11.089,-0.15,-0.06,-0.04,0.17
11.099,-0.17,-0.06,-0.03,0.18
11.109,-0.14,-0.06,-0.02,0.16
11.119,-0.11,-0.07,-0.01,0.14
11.129,-0.11,-0.06,-0.04,0.13
11.139,-0.14,-0.05,-0.08,0.17
11.149,-0.15,-0.05,-0.07,0.17
11.159,-0.17,-0.03,-0.03,0.18
11.169,-0.17,-0.02,0.01,0.17
11.179,-0.13,-0.02,-0.03,0.14
11.189,-0.15,-0.03,-0.11,0.19
11.199,-0.16,-0.02,-0.09,0.18
11.209,-0.17,0.01,-0.06,0.18
11.219,-0.15,0.04,-0.03,0.15
11.229,-0.12,0.04,-0.03,0.13
11.239,-0.11,0.05,-0.04,0.13
11.249,-0.07,0.06,-0.01,0.09
11.259,-0.02,0.05,-0.00,0.05
11.269,-0.02,0.05,-0.04,0.07
11.279,0.03,0.04,-0.03,0.06
11.289,0.03,0.04,-0.01,0.05
11.299,0.01,0.02,0.01,0.03
11.309,-0.03,0.04,-0.00,0.05
11.319,-0.06,0.01,-0.03,0.07
11.329,-0.09,0.02,-0.02,0.10
11.339,-0.12,0.02,0.01,0.12
11.349,-0.14,0.00,0.03,0.15
11.359,-0.18,0.00,0.02,0.19
11.369,-0.19,0.01,0.04,0.20
11.379,-0.22,-0.03,0.03,0.22
11.389,-0.20,-0.01,0.03,0.20
11.399,-0.19,-0.01,0.03,0.19
11.409,-0.16,-0.02,0.04,0.17
11.419,-0.13,-0.02,0.07,0.15
11.429,-0.10,-0.02,0.05,0.11
11.439,-0.10,-0.03,0.05,0.11
11.449,-0.07,-0.02,0.03,0.08
11.459,-0.04,-0.02,-0.01,0.05
11.469,0.01,-0.06,-0.11,0.13
11.479,0.01,-0.07,-0.15,0.17
11.489,0.02,-0.04,-0.10,0.11
11.499,-0.01,-0.00,-0.09,0.09
11.509,-0.10,-0.01,-0.14,0.17
11.519,-0.14,-0.02,-0.13,0.20
11.529,-0.19,-0.01,-0.10,0.22
11.539,-0.23,0.01,-0.06,0.24
11.549,-0.23,0.02,-0.04,0.24
11.559,-0.21,0.02,-0.06,0.22
11.569,-0.17,-0.02,-0.13,0.21
11.579,-0.18,-0.00,-0.12,0.22
11.589,-0.19,0.01,-0.03,0.19
11.599,-0.17,-0.00,-0.03,0.17
11.609,-0.14,-0.02,-0.03,0.15
11.619,-0.14,0.00,0.01,0.14
11.629,-0.14,0.02,0.02,0.14
11.639,-0.11,-0.00,0.03,0.12
11.649,-0.10,-0.01,0.02,0.11
11.659,-0.12,-0.02,0.04,0.12
11.669,-0.09,-0.03,0.05,0.11
11.679,-0.09,-0.02,0.05,0.10
11.689,-0.09,-0.02,0.04,0.10
11.699,-0.09,-0.03,0.01,0.09
11.709,-0.07,-0.04,0.00,0.08
11.719,-0.09,-0.03,0.02,0.10
11.729,-0.10,0.01,0.04,0.11
11.739,-0.11,-0.00,0.04,0.12
11.749,-0.08,-0.00,0.02,0.08
11.759,-0.08,0.01,-0.01,0.08
11.769,-0.10,-0.00,-0.00,0.10
11.779,-0.14,0.02,-0.01,0.14
11.789,-0.16,0.02,0.00,0.16
11.799,-0.11,0.04,0.01,0.12
11.809,-0.08,0.05,0.02,0.10
11.819,-0.09,0.04,-0.01,0.10
11.829,-0.09,0.00,-0.02,0.09
11.839,-0.15,0.00,0.02,0.15
11.849,-0.15,0.03,0.05,0.16
11.859,-0.10,0.05,0.04,0.12
11.869,-0.06,0.03,-0.03,0.07
11.879,-0.07,0.02,-0.06,0.09
11.889,-0.11,0.03,-0.06,0.13
11.899,-0.11,0.00,-0.03,0.11
11.909,-0.07,-0.01,-0.04,0.08
11.919,-0.02,-0.01,0.01,0.03
11.929,-0.04,0.02,0.00,0.05
11.939,-0.12,0.03,-0.00,0.12
11.949,-0.13,0.01,-0.02,0.13
11.959,-0.18,0.02,-0.03,0.18
11.969,-0.09,-0.00,-0.06,0.10
11.979,-0.06,-0.04,-0.13,0.15
11.989,-0.10,-0.04,-0.07,0.13
12.000,-0.13,-0.01,0.01,0.13
12.006,-0.13,0.02,0.05,0.14
12.015,-0.13,0.01,0.01,0.13
12.025,-0.12,-0.03,-0.11,0.17
12.035,-0.08,-0.05,-0.15,0.18
12.045,-0.08,-0.02,-0.07,0.11
12.056,-0.07,-0.01,0.01,0.07
12.066,-0.12,-0.00,-0.01,0.12
12.075,-0.18,-0.00,-0.03,0.18
12.086,-0.16,-0.01,0.01,0.16
12.096,-0.15,0.00,-0.03,0.16
12.106,-0.13,-0.06,-0.12,0.19
12.116,-0.12,-0.03,-0.05,0.13
12.126,-0.08,-0.02,0.04,0.10
12.136,-0.04,-0.01,0.05,0.07
12.146,-0.03,-0.01,0.05,0.06
12.156,-0.06,-0.03,-0.01,0.07
12.166,-0.07,-0.04,-0.07,0.11
12.176,-0.07,-0.03,-0.10,0.13
12.186,-0.07,-0.04,-0.13,0.15
12.196,-0.06,-0.01,-0.04,0.08
12.206,-0.10,0.02,0.03,0.11
12.216,-0.16,0.03,0.03,0.17
12.226,-0.17,0.03,-0.02,0.17
12.236,-0.18,0.03,-0.04,0.18
12.246,-0.17,0.04,-0.00,0.17
12.256,-0.14,0.04,0.06,0.16
12.266,-0.15,0.04,0.03,0.16
12.276,-0.15,0.04,-0.01,0.16
12.286,-0.13,0.02,-0.05,0.14
12.296,-0.11,0.01,-0.06,0.13
12.306,-0.10,0.02,-0.03,0.11
12.316,-0.10,0.03,-0.01,0.10
12.326,-0.06,0.00,0.00,0.06
12.336,-0.01,-0.01,0.01,0.02
12.346,-0.04,-0.01,-0.03,0.05
12.356,-0.05,0.00,0.01,0.05
12.366,0.01,-0.01,-0.10,0.11
12.376,-0.11,0.01,0.00,0.11
12.386,-0.07,0.01,0.04,0.07
12.396,-0.13,0.02,-0.01,0.13
12.406,-0.13,0.04,-0.00,0.14
12.416,-0.12,0.00,-0.05,0.13
12.426,-0.17,0.00,-0.05,0.18
12.436,-0.15,-0.00,-0.00,0.15
12.446,-0.16,-0.01,0.02,0.16
12.456,-0.12,0.00,0.03,0.13
12.466,-0.10,0.01,0.02,0.11
12.476,-0.10,0.01,-0.01,0.10
12.486,-0.12,0.01,-0.00,0.12
12.496,-0.13,-0.01,-0.02,0.13
12.506,-0.15,0.01,-0.00,0.15
12.516,-0.08,0.02,0.03,0.09
12.526,0.00,-0.02,-0.04,0.04
12.536,-0.07,0.01,-0.03,0.07
12.546,-0.05,0.01,-0.01,0.05
12.556,-0.11,0.02,-0.01,0.11
12.566,-0.12,-0.00,-0.02,0.12
12.576,-0.13,0.01,-0.04,0.13
12.586,-0.14,0.03,0.02,0.15
12.596,-0.09,-0.06,-0.07,0.13
12.606,-0.06,-0.00,-0.07,0.09
12.616,-0.07,0.02,-0.02,0.07
12.626,-0.07,-0.02,-0.07,0.10
12.636,-0.09,-0.03,-0.08,0.12
12.646,-0.10,0.01,-0.09,0.13
12.656,-0.08,-0.00,-0.11,0.14
12.666,-0.11,-0.04,-0.14,0.18
12.676,-0.11,-0.04,-0.15,0.19
12.686,-0.09,-0.00,-0.10,0.13
12.696,-0.08,0.01,-0.02,0.08
12.706,-0.08,0.03,-0.02,0.09
12.716,-0.08,0.01,-0.07,0.10
12.726,-0.11,0.00,-0.10,0.15
12.736,-0.13,0.03,-0.05,0.14
12.746,-0.10,0.05,-0.03,0.12
12.756,-0.09,0.04,-0.07,0.12
12.766,-0.10,0.01,-0.07,0.12
12.776,-0.14,0.01,-0.02,0.14
12.786,-0.16,0.02,0.03,0.16
12.796,-0.14,0.01,0.05,0.15
12.806,-0.15,0.01,0.03,0.15
12.816,-0.15,0.00,-0.00,0.15
12.826,-0.14,0.00,-0.04,0.15
12.836,-0.12,0.01,-0.03,0.13
12.846,-0.11,-0.00,-0.02,0.11
12.856,-0.10,0.01,0.00,0.10
12.866,-0.08,0.01,-0.01,0.08
12.876,-0.09,0.01,0.00,0.09
12.886,-0.09,-0.02,0.01,0.09
12.896,-0.09,-0.01,-0.01,0.09
12.906,-0.10,-0.05,-0.05,0.13
12.916,-0.10,-0.09,-0.06,0.15
12.926,-0.16,-0.06,-0.05,0.18
12.936,-0.20,-0.03,-0.02,0.20
12.946,-0.20,-0.02,-0.03,0.20
12.956,-0.17,-0.02,-0.08,0.19
12.966,-0.12,-0.01,-0.07,0.14
12.976,-0.12,-0.02,-0.01,0.12
12.986,-0.10,-0.01,0.02,0.10
12.996,-0.08,-0.01,0.03,0.09
13.006,-0.08,-0.02,0.02,0.09
13.016,-0.08,-0.02,0.02,0.09
13.026,-0.11,-0.02,0.00,0.11
13.036,-0.07,-0.00,-0.03,0.08
13.046,-0.08,0.02,-0.03,0.09
13.056,-0.09,0.00,-0.02,0.10
13.066,-0.11,0.03,-0.01,0.11
13.076,-0.13,0.07,0.06,0.16
13.086,-0.14,0.09,0.09,0.18
13.096,-0.15,0.09,0.06,0.18
13.106,-0.13,0.08,0.04,0.16
13.116,-0.10,0.07,0.02,0.13
13.126,-0.12,0.07,-0.00,0.13
13.137,-0.12,0.06,0.02,0.14
13.146,-0.11,0.05,0.03,0.13
13.156,-0.11,0.03,-0.02,0.11
13.166,-0.11,0.01,-0.03,0.11
13.176,-0.11,0.03,0.00,0.12
13.186,-0.11,0.01,-0.01,0.11
13.196,-0.10,0.01,-0.03,0.11
13.206,-0.04,-0.02,-0.03,0.06
13.216,-0.06,-0.02,-0.04,0.08
13.226,-0.15,0.00,-0.07,0.16
13.236,-0.11,-0.02,-0.06,0.13
13.246,-0.12,-0.02,-0.04,0.12
13.256,-0.11,-0.03,-0.01,0.12
13.266,-0.11,-0.02,0.03,0.12
13.276,-0.16,-0.02,0.03,0.16
13.286,-0.18,-0.04,-0.00,0.18
13.297,-0.21,-0.03,-0.01,0.22
13.306,-0.23,-0.02,-0.00,0.24
13.316,-0.23,-0.02,-0.03,0.23
13.326,-0.17,-0.03,-0.06,0.18
13.337,-0.13,-0.00,-0.07,0.15
13.346,-0.12,-0.00,-0.05,0.13
13.356,-0.12,-0.00,-0.01,0.12
13.366,-0.13,-0.01,-0.05,0.14
13.376,-0.14,0.01,-0.04,0.14
13.386,-0.12,0.02,-0.03,0.13
13.396,-0.11,-0.00,-0.04,0.12
13.406,-0.06,0.01,-0.05,0.08
13.417,-0.10,-0.00,-0.04,0.11
13.426,-0.10,-0.00,0.00,0.10
13.437,-0.13,-0.02,0.01,0.13
13.447,-0.14,-0.02,-0.00,0.14
13.457,-0.14,-0.01,0.03,0.14
13.466,-0.12,-0.00,0.04,0.13
13.477,-0.11,0.00,0.05,0.12
13.486,-0.11,0.01,0.02,0.11
13.496,-0.14,-0.03,-0.05,0.15
13.506,-0.15,-0.03,-0.02,0.16
13.516,-0.14,-0.01,0.01,0.14
13.527,-0.11,-0.02,0.03,0.11
13.537,-0.16,-0.00,0.04,0.17
13.546,-0.20,-0.00,0.06,0.21
13.557,-0.17,-0.01,0.06,0.18
13.567,-0.09,0.02,0.05,0.11
13.577,-0.06,0.02,0.06,0.09
13.587,-0.07,0.01,0.02,0.07
13.597,-0.09,0.00,0.02,0.10
13.607,-0.09,-0.00,0.07,0.11
13.617,-0.05,0.04,0.13,0.15
13.627,-0.04,0.03,0.15,0.16
13.637,-0.05,0.02,0.08,0.09
13.647,-0.07,-0.02,0.01,0.07
13.657,-0.08,0.02,0.05,0.09
13.667,-0.10,0.02,0.10,0.15
13.677,-0.07,0.03,0.11,0.13
13.687,-0.06,0.00,0.04,0.07
13.697,-0.10,-0.03,-0.06,0.12
13.707,-0.11,-0.02,-0.02,0.11
13.717,-0.11,0.00,0.04,0.11
13.727,-0.11,-0.02,0.03,0.11
13.737,-0.08,-0.03,-0.04,0.09
13.747,-0.11,-0.05,-0.09,0.15
13.757,-0.16,-0.05,-0.08,0.19
13.767,-0.21,-0.05,-0.05,0.22
13.777,-0.17,-0.05,-0.04,0.18
13.787,-0.18,-0.06,-0.04,0.19
13.797,-0.20,-0.05,-0.06,0.22
13.807,-0.20,-0.04,-0.08,0.22
13.817,-0.21,-0.04,-0.06,0.23
13.827,-0.21,-0.03,-0.02,0.21
13.837,-0.16,-0.04,-0.03,0.17
13.847,-0.11,-0.04,-0.06,0.13
13.857,-0.07,-0.04,-0.06,0.10
13.867,-0.06,-0.04,-0.03,0.08
13.877,-0.04,-0.04,-0.06,0.08
13.887,-0.06,-0.04,-0.07,0.11
13.897,-0.09,-0.03,-0.05,0.11
13.907,-0.10,-0.00,0.00,0.10
13.917,-0.15,-0.01,0.06,0.16
13.927,-0.14,0.01,0.07,0.15
13.937,-0.14,0.02,0.03,0.15
13.947,-0.14,0.04,0.03,0.15
13.957,-0.14,0.06,0.04,0.15
13.967,-0.09,0.05,0.05,0.12
13.977,-0.04,0.03,0.04,0.07
13.987,-0.03,0.02,0.00,0.04
13.997,-0.07,0.02,0.01,0.08
14.007,-0.09,0.02,0.09,0.13
14.017,-0.09,0.00,0.09,0.13
14.027,-0.10,-0.00,0.03,0.10
14.037,-0.10,-0.01,0.05,0.11
14.047,-0.12,-0.00,0.08,0.15
14.057,-0.14,-0.01,0.03,0.14
14.067,-0.13,-0.02,-0.01,0.13
14.077,-0.13,-0.01,-0.01,0.13
14.087,-0.14,0.00,0.03,0.14
14.097,-0.17,-0.01,0.04,0.17
14.107,-0.17,-0.02,0.03,0.17
14.117,-0.16,-0.03,0.01,0.16
14.127,-0.13,-0.03,-0.01,0.14
14.137,-0.13,-0.05,-0.02,0.14
14.147,-0.15,-0.04,-0.02,0.15
14.157,-0.12,-0.04,-0.01,0.13
14.167,-0.13,-0.05,-0.03,0.14
14.177,-0.11,-0.05,-0.08,0.15
14.187,-0.10,-0.03,-0.10,0.15
14.197,-0.11,-0.03,-0.10,0.15
14.207,-0.08,-0.04,-0.06,0.11
14.217,-0.10,-0.01,-0.03,0.10
14.227,-0.12,0.01,-0.04,0.13
14.237,-0.10,0.01,-0.06,0.12
14.247,-0.06,0.03,0.05,0.08
14.257,-0.08,0.06,0.07,0.12
14.267,-0.08,0.07,0.01,0.11
14.277,-0.11,0.05,0.01,0.12
14.287,-0.14,0.06,0.00,0.15
14.297,-0.15,0.03,-0.01,0.16
14.307,-0.16,0.06,-0.01,0.17
14.317,-0.15,0.06,0.02,0.16
14.327,-0.14,0.06,0.04,0.16
14.337,-0.15,0.07,-0.01,0.16
14.347,-0.13,0.04,-0.04,0.14
14.357,-0.09,0.02,-0.03,0.10
14.367,-0.09,0.01,-0.03,0.09
14.377,-0.09,0.02,-0.01,0.10
14.387,-0.15,0.01,0.01,0.15
14.397,-0.16,0.02,-0.02,0.16
14.407,-0.11,0.03,-0.02,0.12
14.417,-0.10,0.02,-0.01,0.10
14.427,-0.12,0.02,0.02,0.12
14.437,-0.11,0.01,0.04,0.11
14.447,-0.10,0.02,0.05,0.11
14.457,-0.08,0.03,0.06,0.10
14.467,-0.08,-0.02,0.00,0.08
14.477,-0.08,-0.01,-0.08,0.11
14.487,-0.08,-0.03,-0.08,0.12
14.497,-0.07,-0.04,-0.09,0.12
14.507,-0.09,-0.03,-0.07,0.12
14.517,-0.10,-0.05,-0.09,0.15
14.527,-0.11,-0.05,-0.09,0.15
14.537,-0.13,-0.04,-0.07,0.16
14.547,-0.17,-0.02,-0.06,0.18
14.557,-0.20,-0.03,-0.07,0.21
14.567,-0.20,-0.04,-0.09,0.22
14.577,-0.18,-0.03,-0.07,0.19
14.587,-0.15,-0.00,-0.04,0.15
14.597,-0.14,0.01,-0.03,0.14
14.607,-0.14,0.02,0.00,0.14
14.617,-0.17,0.02,0.04,0.17
14.627,-0.14,0.02,0.02,0.14
14.637,-0.11,0.00,0.03,0.11
14.647,-0.06,-0.01,-0.02,0.06
14.657,-0.07,-0.03,-0.02,0.07
14.667,-0.07,-0.01,-0.03,0.08
14.677,-0.09,-0.01,-0.01,0.09
14.687,-0.12,0.00,-0.00,0.12
14.697,-0.15,0.01,0.03,0.15
14.707,-0.14,0.00,0.08,0.16
14.717,-0.14,-0.00,0.08,0.16
14.727,-0.10,-0.00,0.02,0.10
14.737,-0.08,-0.02,-0.02,0.08
14.747,-0.07,-0.01,-0.02,0.07
14.757,-0.05,-0.03,-0.02,0.06
14.767,-0.05,-0.03,0.01,0.06
14.777,-0.07,-0.03,0.03,0.08
14.787,-0.12,-0.02,-0.00,0.12
14.797,-0.14,-0.02,-0.01,0.15
14.807,-0.15,-0.04,-0.00,0.16
14.817,-0.16,-0.01,-0.01,0.16
14.827,-0.16,-0.01,0.01,0.16
14.837,-0.13,-0.00,0.04,0.14
14.847,-0.08,-0.01,0.04,0.09
14.857,-0.09,0.01,-0.00,0.09
14.867,-0.07,-0.01,-0.01,0.07
14.877,-0.06,0.00,-0.03,0.07
14.887,-0.07,-0.01,-0.01,0.07
14.898,-0.07,-0.00,0.02,0.07
14.907,-0.09,-0.01,0.01,0.10
14.917,-0.08,-0.01,0.02,0.08
14.928,-0.12,-0.00,0.02,0.12
14.937,-0.13,0.00,-0.04,0.13
14.947,-0.13,0.00,-0.01,0.13
14.957,-0.11,0.02,0.02,0.11
14.967,-0.12,0.03,-0.02,0.12
14.978,-0.12,-0.02,-0.06,0.13
14.988,-0.13,-0.01,-0.06,0.14
14.998,-0.12,-0.01,-0.04,0.13
15.008,-0.11,-0.02,0.01,0.12
15.018,-0.14,-0.01,0.02,0.14
15.028,-0.14,-0.03,0.01,0.14
15.038,-0.07,-0.00,0.06,0.09
15.048,-0.09,-0.02,0.09,0.13
15.058,-0.09,-0.02,0.04,0.10
15.068,-0.10,-0.02,0.03,0.10
15.078,-0.11,-0.01,0.04,0.11
15.088,-0.08,-0.01,0.05,0.10
15.098,-0.06,-0.01,0.04,0.07
15.108,-0.03,-0.04,0.02,0.05
15.118,-0.01,-0.03,0.01,0.03
15.128,-0.04,-0.01,-0.01,0.04
15.138,-0.07,-0.02,-0.03,0.08
15.148,-0.14,0.02,-0.08,0.16
15.158,-0.13,0.02,-0.09,0.15
15.168,-0.13,0.03,-0.06,0.15
15.178,-0.14,0.05,-0.07,0.16
15.188,-0.12,0.05,-0.07,0.15
15.198,-0.14,0.07,-0.08,0.18
15.208,-0.13,0.07,-0.04,0.15
15.218,-0.13,0.05,-0.08,0.16
15.228,-0.09,0.03,-0.11,0.14
15.238,-0.10,0.02,-0.08,0.13
15.248,-0.12,0.01,-0.06,0.13
15.258,-0.12,-0.01,-0.08,0.15
15.268,-0.14,-0.02,-0.09,0.17
15.278,-0.15,-0.02,-0.05,0.16
15.288,-0.16,-0.01,-0.05,0.17
15.298,-0.17,-0.00,-0.02,0.17
15.308,-0.16,-0.00,0.00,0.16
15.318,-0.18,0.00,0.05,0.18
15.328,-0.17,0.01,0.05,0.18
15.338,-0.12,0.00,0.07,0.14
15.348,-0.11,0.01,0.08,0.14
15.358,-0.10,-0.01,0.08,0.13
15.368,-0.10,0.01,0.07,0.12
15.378,-0.10,-0.00,0.09,0.14
15.388,-0.09,0.00,0.06,0.11
15.398,-0.06,-0.01,-0.03,0.07
15.408,-0.02,-0.02,-0.03,0.04
15.418,-0.03,0.01,0.01,0.03
15.428,-0.04,0.01,0.01,0.04
15.438,-0.09,0.01,-0.03,0.09
15.448,-0.10,-0.02,-0.08,0.14
15.458,-0.14,0.01,-0.08,0.16
15.468,-0.14,0.01,-0.06,0.15
15.478,-0.14,-0.01,-0.12,0.18
15.488,-0.13,-0.02,-0.14,0.20
15.498,-0.13,0.01,-0.10,0.16
15.508,-0.17,0.02,-0.06,0.18
15.518,-0.17,0.02,-0.07,0.19
15.528,-0.19,0.01,-0.10,0.21
15.538,-0.13,0.03,-0.12,0.18
15.548,-0.11,0.04,-0.10,0.15
15.558,-0.09,0.03,-0.08,0.12
15.568,-0.06,0.04,-0.07,0.10
15.578,-0.06,0.01,-0.07,0.09
15.588,-0.07,0.03,-0.05,0.10
15.598,-0.09,0.05,-0.01,0.10
15.608,-0.10,0.06,0.02,0.12
15.618,-0.10,0.05,0.03,0.12
15.628,-0.13,0.05,0.02,0.14
15.638,-0.13,0.04,0.02,0.14
15.648,-0.09,0.04,0.05,0.11
15.658,-0.11,0.04,0.07,0.13
15.668,-0.13,0.01,0.12,0.17
15.678,-0.12,-0.00,0.14,0.18
15.688,-0.13,-0.03,0.14,0.19
15.698,-0.14,-0.03,0.11,0.18
15.708,-0.13,-0.02,0.08,0.16
15.718,-0.11,-0.03,0.05,0.12
15.728,-0.08,-0.03,0.00,0.09
15.738,-0.07,-0.04,-0.02,0.08
15.748,-0.06,-0.04,-0.02,0.07
15.758,-0.04,-0.03,-0.04,0.07
15.768,-0.02,-0.03,-0.08,0.09
15.778,-0.00,-0.06,-0.11,0.12
15.788,-0.04,-0.07,-0.15,0.17
15.798,-0.12,-0.07,-0.14,0.19
15.808,-0.15,-0.04,-0.10,0.19
15.818,-0.17,-0.00,-0.03,0.17
15.828,-0.18,0.01,-0.05,0.18
15.838,-0.15,-0.01,-0.11,0.18
15.848,-0.14,-0.00,-0.09,0.17
15.858,-0.13,0.01,-0.08,0.15
15.868,-0.13,0.02,-0.13,0.19
15.878,-0.13,-0.00,-0.15,0.20
15.888,-0.13,0.01,-0.11,0.17
15.898,-0.11,0.03,-0.05,0.13
15.908,-0.12,0.03,-0.01,0.12
15.918,-0.13,0.00,0.01,0.13
15.928,-0.14,-0.02,0.00,0.14
15.938,-0.15,-0.03,-0.01,0.16
15.948,-0.14,-0.04,-0.02,0.14
15.958,-0.12,-0.04,-0.04,0.14
15.968,-0.17,-0.03,-0.02,0.17
15.978,-0.17,-0.04,-0.01,0.17
15.988,-0.14,-0.06,-0.04,0.16
15.999,-0.14,-0.05,-0.01,0.15
16.008,-0.15,-0.05,0.01,0.16
16.018,-0.16,-0.04,0.03,0.16
16.028,-0.13,-0.01,0.05,0.14
16.038,-0.11,-0.02,0.06,0.13
16.049,-0.10,-0.04,0.03,0.11
16.058,-0.05,-0.03,0.03,0.07
16.068,-0.03,-0.04,0.01,0.05
16.078,-0.06,-0.01,-0.01,0.06
16.088,-0.05,-0.01,0.02,0.05
16.098,-0.05,0.00,0.01,0.05
16.108,-0.04,0.01,-0.05,0.07
16.118,-0.04,0.02,-0.06,0.08
16.128,-0.07,0.01,-0.04,0.08
16.138,-0.12,0.01,-0.03,0.12
16.148,-0.15,-0.01,-0.07,0.16
16.158,-0.16,-0.02,-0.07,0.17
16.169,-0.19,-0.00,-0.05,0.20
16.178,-0.22,0.01,-0.04,0.22
16.188,-0.24,0.00,-0.03,0.24
16.199,-0.22,0.00,-0.03,0.22
16.208,-0.17,0.01,-0.02,0.17
16.219,-0.10,0.00,-0.05,0.11
16.229,-0.09,-0.01,-0.05,0.10
16.239,-0.08,-0.00,0.05,0.09
16.249,-0.06,0.02,0.06,0.09
16.258,-0.05,0.02,0.06,0.08
16.269,-0.08,0.02,0.07,0.11
16.278,-0.09,0.02,0.09,0.13
16.288,-0.08,0.02,0.08,0.12
16.299,-0.07,-0.00,0.03,0.08
16.309,-0.05,0.00,0.01,0.05
16.318,-0.04,0.00,0.03,0.05
16.329,-0.08,0.01,0.02,0.08
16.338,-0.12,-0.00,0.01,0.12
16.348,-0.16,-0.03,0.00,0.16
16.359,-0.16,-0.04,-0.06,0.17
16.372,-0.13,-0.04,-0.07,0.16
16.382,-0.14,-0.04,-0.07,0.16
16.392,-0.13,-0.03,-0.04,0.14
16.402,-0.15,-0.05,-0.05,0.17
16.412,-0.13,-0.04,-0.08,0.16
16.422,-0.12,-0.03,-0.10,0.16
16.432,-0.11,-0.05,-0.07,0.14
16.442,-0.13,-0.05,-0.06,0.15
16.452,-0.15,-0.05,-0.08,0.18
16.462,-0.16,-0.05,-0.06,0.18
16.472,-0.13,-0.05,-0.05,0.15
16.482,-0.14,-0.06,-0.06,0.17
16.492,-0.14,-0.05,-0.03,0.15
16.502,-0.14,-0.06,-0.06,0.16
16.512,-0.15,-0.06,-0.05,0.17
16.522,-0.13,-0.04,-0.01,0.13
16.532,-0.13,-0.04,-0.02,0.14
16.542,-0.14,-0.00,0.01,0.14
16.552,-0.13,0.01,0.01,0.13
16.562,-0.12,0.02,0.00,0.12
16.572,-0.09,0.03,0.03,0.10
16.582,-0.05,0.02,-0.01,0.06
16.592,-0.04,0.03,-0.00,0.05
16.602,-0.05,0.05,0.01,0.07
16.613,-0.09,0.05,0.03,0.10
16.622,-0.07,0.04,0.03,0.09
16.632,-0.09,0.05,0.03,0.10
16.642,-0.10,0.05,0.00,0.12
16.652,-0.12,0.04,-0.01,0.13
16.662,-0.14,0.03,0.02,0.15
16.672,-0.14,0.04,0.08,0.16
16.682,-0.13,0.03,0.09,0.16
16.692,-0.13,0.02,0.03,0.14
16.702,-0.14,0.02,0.01,0.14
16.712,-0.14,-0.01,0.01,0.14
16.722,-0.11,-0.03,0.01,0.11
16.732,-0.09,-0.03,-0.01,0.09
16.742,-0.05,-0.04,-0.04,0.08
16.753,-0.06,-0.07,-0.03,0.09
16.763,-0.05,-0.06,0.00,0.08
16.773,-0.02,-0.04,-0.02,0.05
16.783,-0.02,-0.05,-0.06,0.08
16.793,-0.07,-0.06,-0.06,0.11
16.803,-0.13,-0.04,-0.08,0.16
16.813,-0.16,-0.01,-0.07,0.18
16.823,-0.16,-0.01,-0.07,0.18
16.833,-0.16,0.01,-0.04,0.16
16.843,-0.17,0.03,0.03,0.18
16.853,-0.16,0.00,0.02,0.16
16.863,-0.17,0.03,-0.00,0.17
16.873,-0.19,0.02,-0.04,0.19
16.883,-0.17,0.01,-0.06,0.18
16.893,-0.15,0.03,-0.02,0.15
16.903,-0.13,0.03,0.00,0.13
16.913,-0.12,0.03,0.02,0.12
16.923,-0.09,0.03,0.08,0.12
16.933,-0.08,0.03,0.06,0.11
16.943,-0.06,0.03,0.05,0.09
16.953,-0.06,0.02,0.03,0.07
16.963,-0.08,0.00,0.01,0.08
16.973,-0.09,-0.02,0.01,0.09
16.983,-0.12,-0.01,0.01,0.12
16.993,-0.11,-0.02,-0.00,0.11
17.003,-0.11,-0.02,0.02,0.12
17.013,-0.14,-0.02,-0.04,0.15
17.023,-0.14,-0.02,-0.06,0.15
17.033,-0.17,-0.00,-0.01,0.17
17.043,-0.15,-0.03,0.01,0.15
17.053,-0.03,0.00,-0.07,0.07
17.063,-0.03,-0.00,-0.03,0.05
17.073,-0.09,0.02,-0.05,0.10
17.083,-0.10,0.00,-0.11,0.15
17.093,-0.12,-0.02,-0.09,0.16
17.103,-0.16,0.01,-0.06,0.17
17.113,-0.17,0.02,-0.03,0.17
17.123,-0.17,0.01,-0.05,0.18
17.133,-0.19,-0.02,-0.06,0.20
17.143,-0.18,-0.01,-0.06,0.19
17.153,-0.17,-0.01,-0.05,0.18
17.163,-0.14,-0.02,-0.05,0.15
17.173,-0.11,-0.02,-0.06,0.13
17.183,-0.10,-0.02,-0.04,0.11
17.193,-0.08,-0.01,-0.01,0.08
17.203,-0.07,-0.02,0.00,0.07
17.213,-0.07,0.00,0.01,0.07
17.223,-0.06,0.01,0.02,0.06
17.233,-0.07,0.01,0.01,0.07
17.243,-0.07,0.03,0.01,0.08
17.253,-0.07,0.04,0.03,0.08
17.263,-0.07,0.06,0.03,0.09
17.273,-0.10,0.06,0.04,0.12
17.283,-0.09,0.04,0.03,0.10
17.293,-0.15,0.04,0.00,0.15
17.303,-0.19,0.03,-0.01,0.20
17.313,-0.22,0.03,0.03,0.23
17.323,-0.21,0.04,0.04,0.22
17.333,-0.19,0.03,0.03,0.20
17.343,-0.17,0.02,0.00,0.17
17.353,-0.13,-0.01,-0.00,0.13
17.363,-0.12,-0.02,-0.02,0.12
17.373,-0.11,-0.04,-0.03,0.12
17.383,-0.11,-0.02,-0.03,0.11
17.393,-0.11,-0.02,-0.00,0.11
17.403,-0.13,-0.04,0.02,0.14
17.413,-0.15,-0.05,-0.02,0.16
17.423,-0.13,-0.05,0.01,0.14
17.433,-0.10,-0.05,-0.01,0.11
17.443,-0.05,-0.05,-0.03,0.08
17.453,-0.05,-0.02,-0.04,0.07
17.463,-0.05,-0.01,-0.04,0.07
17.473,-0.12,0.02,-0.06,0.13
17.483,-0.11,0.02,-0.05,0.13
17.493,-0.13,0.02,-0.02,0.13
17.503,-0.13,0.01,0.00,0.13
17.513,-0.13,0.02,0.05,0.14
17.523,-0.19,0.03,0.07,0.20
17.533,-0.18,0.04,0.06,0.20
17.543,-0.18,0.03,0.01,0.18
17.553,-0.14,0.01,-0.03,0.14
17.563,-0.13,-0.00,-0.04,0.14
17.573,-0.12,0.02,-0.04,0.13
17.583,-0.08,0.02,-0.01,0.09
17.593,-0.05,0.01,-0.00,0.05
17.603,-0.04,0.01,0.02,0.05
17.613,-0.02,0.01,0.04,0.05
17.623,-0.05,0.01,0.04,0.06
17.633,-0.03,0.00,0.05,0.06
17.643,-0.00,-0.01,0.02,0.02
17.653,-0.02,-0.02,-0.02,0.03
17.663,-0.06,-0.01,-0.02,0.06
17.673,-0.13,0.02,-0.02,0.13
17.683,-0.19,0.02,-0.01,0.19
17.693,-0.21,0.02,0.00,0.21
17.703,-0.23,0.02,-0.01,0.23
17.713,-0.21,0.00,-0.03,0.21
17.723,-0.20,0.02,-0.02,0.21
17.733,-0.19,0.04,-0.01,0.19
17.743,-0.15,0.01,-0.02,0.15
17.753,-0.11,0.02,-0.06,0.13
17.763,-0.09,0.01,-0.07,0.12
17.773,-0.09,0.01,-0.03,0.09
17.783,-0.11,0.01,0.02,0.11
17.793,-0.06,0.01,0.03,0.06
17.803,-0.02,-0.01,0.01,0.02
17.813,-0.00,-0.01,-0.01,0.01
17.823,-0.02,-0.02,-0.01,0.02
17.833,-0.06,-0.04,-0.02,0.07
17.843,-0.08,-0.03,0.01,0.09
17.853,-0.10,-0.04,0.03,0.11
17.863,-0.15,-0.03,-0.02,0.16
17.873,-0.17,-0.05,-0.06,0.18
17.883,-0.18,-0.06,-0.04,0.20
17.893,-0.18,-0.06,-0.00,0.19
17.903,-0.18,-0.04,0.01,0.19
17.913,-0.16,-0.04,0.01,0.17
17.923,-0.17,-0.03,-0.01,0.17
17.933,-0.16,-0.02,-0.03,0.16
17.943,-0.14,-0.00,-0.04,0.14
17.953,-0.11,0.01,-0.02,0.11
17.963,-0.07,0.01,0.00,0.07
17.973,-0.08,0.01,0.02,0.09
17.983,-0.06,0.02,0.05,0.08
17.993,-0.06,0.02,0.04,0.07
18.003,-0.10,0.01,0.03,0.10
18.013,-0.10,0.01,0.02,0.10
18.023,-0.10,-0.01,0.02,0.10
18.033,-0.12,-0.00,0.01,0.12
18.043,-0.12,-0.03,-0.00,0.12
18.053,-0.11,-0.03,0.01,0.11
18.063,-0.13,-0.02,0.00,0.13
18.073,-0.14,-0.03,-0.03,0.15
18.083,-0.12,-0.03,-0.07,0.15
18.093,-0.10,-0.03,-0.07,0.13
18.103,-0.10,-0.00,-0.04,0.11
18.114,-0.11,-0.00,-0.02,0.11
18.123,-0.12,-0.01,-0.02,0.13
18.133,-0.15,0.00,-0.03,0.15
18.143,-0.11,-0.03,-0.02,0.11
18.153,-0.10,-0.02,-0.02,0.11
18.163,-0.11,-0.01,-0.06,0.13
18.173,-0.12,-0.00,-0.04,0.13
18.183,-0.13,0.01,-0.01,0.14
18.193,-0.11,0.00,-0.00,0.11
18.203,-0.09,0.01,-0.02,0.09
18.214,-0.09,0.00,-0.04,0.10
18.223,-0.13,-0.00,-0.05,0.13
18.234,-0.14,-0.01,-0.04,0.14
18.244,-0.14,0.02,-0.04,0.15
18.254,-0.14,0.01,-0.03,0.14
18.263,-0.16,0.01,0.01,0.16
18.274,-0.14,0.03,0.02,0.15
18.284,-0.12,0.04,0.03,0.13
18.293,-0.09,0.02,-0.01,0.09
18.304,-0.05,-0.00,-0.07,0.08
18.314,-0.00,-0.02,-0.08,0.08
18.324,-0.02,-0.02,-0.10,0.10
18.333,-0.04,-0.02,-0.11,0.11
18.344,-0.06,-0.02,-0.09,0.11
18.354,-0.08,-0.02,-0.04,0.09
18.364,-0.10,0.02,-0.00,0.10
18.374,-0.13,0.01,-0.01,0.13
18.384,-0.17,0.00,-0.02,0.17
18.394,-0.19,-0.00,-0.03,0.19
18.403,-0.18,0.01,-0.03,0.18
18.414,-0.18,0.01,-0.06,0.19
18.424,-0.15,0.00,-0.08,0.17
18.434,-0.12,-0.01,-0.04,0.13
18.444,-0.08,-0.00,-0.01,0.08
18.454,-0.11,0.01,-0.01,0.11
18.464,-0.12,0.00,-0.01,0.12
18.474,-0.12,-0.04,-0.04,0.14
18.484,-0.11,-0.03,-0.03,0.12
18.494,-0.08,-0.03,0.01,0.08
18.504,-0.05,-0.04,0.02,0.07
18.514,-0.01,-0.04,-0.03,0.05
18.524,-0.04,-0.05,-0.05,0.08
18.534,-0.14,-0.03,0.00,0.14
18.544,-0.17,-0.01,0.06,0.18
18.554,-0.17,-0.03,0.03,0.18
18.564,-0.13,-0.04,-0.02,0.14
18.574,-0.13,-0.06,-0.05,0.15
18.584,-0.10,-0.04,-0.04,0.11
18.594,-0.11,-0.03,-0.03,0.12
18.604,-0.11,-0.02,-0.03,0.11
18.614,-0.11,-0.04,-0.05,0.12
18.624,-0.11,-0.01,-0.04,0.12
18.634,-0.11,-0.02,-0.05,0.12
18.644,-0.14,-0.00,-0.05,0.15
18.654,-0.14,0.02,-0.01,0.15
18.664,-0.15,0.03,0.02,0.15
18.674,-0.15,0.03,0.04,0.16
18.684,-0.15,0.02,0.06,0.16
18.694,-0.11,0.00,0.02,0.11
18.704,-0.07,0.00,-0.01,0.07
18.714,-0.05,-0.00,-0.05,0.07
18.724,-0.06,-0.01,-0.05,0.08
18.734,-0.04,0.01,-0.00,0.04
18.744,-0.06,0.01,0.03,0.06
18.754,-0.03,0.00,-0.00,0.03
18.764,-0.06,0.00,-0.04,0.08
18.774,-0.10,0.01,-0.05,0.11
18.784,-0.14,0.02,-0.03,0.14
18.794,-0.15,0.03,0.00,0.16
18.804,-0.15,0.03,-0.00,0.15
18.814,-0.17,0.02,-0.02,0.17
18.824,-0.16,-0.00,-0.04,0.17
18.834,-0.15,0.02,-0.05,0.16
18.844,-0.14,0.02,-0.04,0.14
18.854,-0.15,0.02,-0.00,0.15
18.864,-0.14,-0.00,-0.03,0.14
18.874,-0.15,-0.01,-0.06,0.16
18.884,-0.16,-0.01,-0.03,0.16
18.894,-0.15,-0.01,0.01,0.15
18.904,-0.13,-0.00,0.04,0.13
18.914,-0.11,0.01,0.00,0.11
18.924,-0.11,0.00,0.01,0.11
18.934,-0.12,-0.02,0.01,0.12
18.944,-0.12,-0.01,-0.01,0.12
18.954,-0.09,-0.00,-0.00,0.09
18.964,-0.10,-0.00,0.01,0.10
18.974,-0.12,-0.01,0.01,0.12
18.984,-0.11,-0.01,-0.02,0.11
18.994,-0.10,-0.02,-0.05,0.11
19.004,-0.10,-0.00,-0.05,0.12
19.014,-0.14,0.01,-0.02,0.14
19.024,-0.14,0.04,-0.00,0.15
19.034,-0.18,0.03,-0.03,0.19
19.044,-0.18,0.01,-0.03,0.18
19.054,-0.14,0.02,-0.01,0.14
19.064,-0.19,0.02,-0.02,0.19
19.074,-0.11,0.01,-0.01,0.11
19.084,-0.11,0.01,-0.03,0.11
19.094,-0.12,0.01,-0.02,0.12
19.104,-0.09,0.00,-0.00,0.09
19.114,-0.08,-0.01,-0.04,0.09
19.124,-0.08,-0.03,-0.02,0.09
19.134,-0.11,-0.01,0.04,0.12
19.144,-0.15,-0.01,0.04,0.15
19.154,-0.12,-0.05,0.01,0.13
19.164,-0.07,-0.04,-0.02,0.08
19.174,-0.07,-0.05,-0.01,0.09
19.184,-0.07,-0.05,-0.00,0.08
19.194,-0.12,-0.04,-0.01,0.12
19.204,-0.15,-0.03,-0.01,0.15
19.214,-0.16,-0.03,-0.02,0.17
19.224,-0.16,-0.03,-0.01,0.16
19.234,-0.16,-0.01,-0.01,0.16
19.244,-0.18,0.01,0.04,0.18
19.254,-0.21,0.02,0.10,0.23
19.264,-0.18,0.03,0.10,0.21
19.274,-0.16,0.03,0.05,0.17
19.284,-0.11,0.03,0.03,0.12
19.294,-0.06,0.01,0.00,0.06
19.304,-0.05,0.00,0.01,0.05
19.314,-0.03,0.01,0.03,0.05
19.324,-0.08,0.00,0.04,0.08
19.334,-0.10,0.00,0.02,0.10
19.344,-0.05,-0.00,-0.04,0.06
19.354,-0.08,-0.02,-0.06,0.10
19.364,-0.11,-0.02,-0.03,0.11
19.374,-0.14,0.01,-0.01,0.14
19.384,-0.13,0.00,-0.01,0.13
19.394,-0.14,-0.04,-0.04,0.15
19.404,-0.18,-0.03,-0.03,0.19
19.414,-0.16,-0.01,0.04,0.17
19.424,-0.11,-0.01,0.04,0.12
19.434,-0.11,-0.01,-0.02,0.11
19.444,-0.11,-0.04,-0.06,0.13
19.454,-0.12,-0.02,-0.03,0.12
19.464,-0.14,-0.01,0.04,0.15
19.474,-0.13,0.01,0.07,0.15
19.484,-0.14,0.01,0.05,0.15
19.494,-0.13,-0.02,-0.05,0.14
19.504,-0.13,-0.02,-0.02,0.13
19.514,-0.13,0.00,0.05,0.14
19.524,-0.11,0.02,0.07,0.13
19.535,-0.11,0.00,0.08,0.14
19.544,-0.11,0.02,0.06,0.13
19.554,-0.13,-0.02,0.04,0.14
19.564,-0.12,-0.00,0.03,0.12
19.574,-0.09,-0.01,0.04,0.10
19.584,-0.05,-0.02,0.05,0.07
19.594,-0.05,-0.01,0.01,0.05
19.605,-0.05,-0.00,0.02,0.05
19.614,-0.05,-0.01,-0.04,0.07
19.624,-0.05,-0.01,-0.06,0.08
19.635,-0.08,-0.01,-0.04,0.09
19.644,-0.08,-0.01,-0.02,0.08
19.654,-0.11,0.01,-0.03,0.12
19.665,-0.13,0.02,-0.04,0.14
19.674,-0.19,0.02,-0.03,0.20
19.684,-0.18,0.02,-0.05,0.19
19.695,-0.17,0.03,-0.05,0.18
19.705,-0.18,0.03,-0.04,0.18
19.715,-0.16,0.05,-0.06,0.18
19.725,-0.17,0.05,-0.01,0.18
19.735,-0.18,0.03,0.01,0.18
19.745,-0.15,0.03,-0.02,0.16
19.755,-0.11,0.01,-0.01,0.11
19.765,-0.05,0.00,-0.01,0.06
19.775,-0.05,-0.02,0.01,0.05
19.785,-0.06,-0.01,-0.02,0.06
19.795,-0.07,-0.03,-0.03,0.09
19.805,-0.06,-0.01,-0.02,0.07
19.815,-0.07,-0.00,-0.01,0.07
19.825,-0.09,-0.02,-0.03,0.10
19.835,-0.08,-0.03,-0.04,0.09
19.845,-0.12,-0.03,-0.04,0.13
19.855,-0.12,-0.03,-0.03,0.12
19.865,-0.13,-0.01,0.00,0.13
19.875,-0.19,-0.00,0.01,0.19
19.885,-0.21,-0.02,0.02,0.21
19.895,-0.20,-0.01,0.02,0.20
19.905,-0.16,-0.02,0.04,0.17
19.915,-0.14,-0.02,0.01,0.14
19.925,-0.10,-0.03,-0.03,0.11
19.935,-0.09,-0.03,-0.00,0.09
19.945,-0.06,-0.02,0.04,0.07
19.955,-0.05,-0.03,0.01,0.06
19.965,-0.04,-0.03,-0.00,0.05
19.975,-0.05,-0.04,-0.03,0.07
19.985,-0.04,-0.04,-0.02,0.07
19.995,-0.08,-0.00,-0.01,0.08
20.001,-0.11,0.01,0.02,0.12
20.011,-0.15,0.01,0.03,0.15
20.021,-0.16,0.00,0.01,0.16
20.031,-0.14,0.01,-0.01,0.14
20.041,-0.12,0.00,-0.01,0.12
20.051,-0.12,0.03,-0.01,0.13
20.061,-0.11,0.02,-0.04,0.12
20.071,-0.12,0.00,-0.03,0.13
20.081,-0.12,0.02,-0.05,0.13
20.091,-0.11,0.02,-0.03,0.11
20.101,-0.11,-0.00,0.00,0.11
20.111,-0.13,-0.00,0.00,0.13
20.121,-0.11,-0.00,-0.04,0.12
20.131,-0.07,0.01,-0.05,0.09
20.141,-0.07,0.01,-0.03,0.08
20.151,-0.09,0.01,-0.00,0.09
20.161,-0.12,0.02,-0.01,0.12
20.171,-0.12,0.01,0.00,0.12
20.181,-0.11,-0.00,-0.02,0.11
20.191,-0.11,0.00,-0.03,0.12
20.201,-0.11,-0.04,0.01,0.11
20.211,-0.15,-0.01,-0.01,0.15
20.221,-0.15,-0.02,0.01,0.16
20.231,-0.11,-0.04,-0.06,0.13
20.241,-0.09,-0.05,-0.15,0.18
20.251,-0.12,-0.04,-0.09,0.15
20.261,-0.14,-0.02,0.03,0.15
20.271,-0.13,-0.00,0.06,0.14
20.281,-0.14,0.01,0.01,0.14
20.291,-0.13,-0.01,-0.03,0.14
20.301,-0.11,-0.02,-0.01,0.11
20.311,-0.11,-0.01,-0.00,0.11
20.321,-0.09,0.00,-0.06,0.11
20.331,-0.08,0.00,-0.08,0.12
20.341,-0.12,0.02,-0.00,0.12
20.351,-0.11,0.02,0.02,0.12
20.361,-0.12,0.02,0.04,0.13
20.371,-0.15,0.02,0.02,0.15
20.381,-0.08,-0.00,-0.02,0.08
20.391,-0.12,0.03,-0.01,0.12
20.401,-0.12,0.05,-0.01,0.13
20.411,-0.10,0.00,-0.06,0.12
20.421,-0.11,0.00,-0.09,0.14
20.431,-0.07,0.02,-0.02,0.08
20.441,-0.09,0.03,0.00,0.10
20.451,-0.12,0.04,-0.01,0.13
20.461,-0.14,0.03,-0.03,0.15
20.471,-0.11,0.02,-0.02,0.12
20.481,-0.13,0.02,-0.07,0.15
20.491,-0.08,0.00,-0.09,0.12
20.501,-0.14,0.03,-0.01,0.14
20.511,-0.15,0.03,0.04,0.15
20.521,-0.12,0.03,0.05,0.13
20.531,-0.14,0.01,-0.03,0.14
20.541,-0.10,-0.00,-0.07,0.12
20.551,-0.10,-0.01,-0.04,0.11
20.561,-0.08,0.01,-0.00,0.08
20.571,-0.09,0.02,-0.02,0.09
20.581,-0.11,0.01,-0.03,0.12
20.591,-0.11,-0.00,0.03,0.12
20.601,-0.10,0.02,0.02,0.11
20.611,-0.11,0.01,-0.04,0.11
20.621,-0.09,-0.00,-0.06,0.11
20.631,-0.11,-0.01,-0.07,0.13
20.641,-0.12,0.01,-0.04,0.12
20.651,-0.12,0.01,0.02,0.13
20.662,-0.14,0.02,-0.00,0.14
20.671,-0.08,-0.03,-0.05,0.10
20.682,-0.10,-0.04,-0.08,0.13
20.692,-0.14,-0.02,-0.03,0.15
20.701,-0.12,-0.03,-0.02,0.12
20.711,-0.14,-0.04,-0.10,0.17
20.721,-0.14,-0.02,-0.08,0.16
20.731,-0.25,-0.01,0.03,0.25
20.742,-0.13,-0.02,0.05,0.14
20.752,-0.02,-0.04,0.01,0.05
20.761,-0.01,-0.05,-0.09,0.10
20.771,-0.01,-0.03,0.02,0.04
20.781,0.01,-0.05,-0.01,0.05
20.791,-0.10,-0.08,-0.02,0.13
20.801,-0.04,-0.04,0.02,0.06
20.811,-0.08,-0.07,0.02,0.10
20.822,-0.05,-0.04,-0.07,0.09
20.832,-0.03,-0.07,-0.14,0.16
20.842,-0.09,-0.05,-0.10,0.14
20.852,-0.12,-0.03,-0.02,0.13
20.862,-0.12,-0.03,-0.07,0.14
20.872,-0.11,0.09,0.11,0.18
20.882,-0.13,-0.01,0.11,0.17
20.892,0.00,-0.01,-0.02,0.03
20.902,0.01,-0.00,-0.03,0.03
20.912,-0.02,-0.01,-0.05,0.05
20.922,0.01,-0.01,-0.03,0.03
20.932,-0.02,0.02,0.04,0.05
20.942,0.07,0.02,0.14,0.16
20.952,0.15,0.02,0.17,0.23
20.962,0.17,0.03,0.12,0.21
20.972,0.18,0.02,0.03,0.18
20.982,0.14,-0.03,-0.03,0.14
20.992,0.18,0.01,0.08,0.19
21.002,0.28,0.03,0.09,0.30
21.012,0.42,-0.02,0.08,0.43
21.022,0.50,-0.00,0.09,0.50
21.032,0.72,-0.09,0.02,0.73
21.042,0.77,-0.12,-0.06,0.78
21.052,0.77,-0.09,0.11,0.79
21.062,0.77,0.02,0.52,0.93
21.072,0.83,0.01,0.62,1.04
21.082,0.84,0.01,0.36,0.91
21.092,0.89,-0.01,0.40,0.97
21.102,0.83,-0.04,0.43,0.93
21.112,0.83,0.03,0.25,0.87
21.122,1.01,0.03,0.08,1.02
21.132,1.23,-0.03,-0.07,1.23
21.142,1.05,0.04,-0.18,1.07
21.152,0.96,0.06,-0.10,0.96
21.162,0.82,0.13,0.22,0.86
21.172,0.65,-0.01,0.30,0.72
21.182,0.51,-0.00,0.11,0.52
21.192,0.58,0.07,0.25,0.64
21.202,0.47,-0.06,0.20,0.51
21.212,0.49,-0.21,-0.11,0.54
21.222,0.48,-0.38,-0.32,0.69
21.232,0.46,-0.49,-0.25,0.72
21.242,0.50,-0.39,-0.45,0.78
21.252,0.34,-0.31,-0.56,0.72
21.262,0.09,-0.23,-0.51,0.57
21.272,-0.00,-0.02,-0.44,0.44
21.282,-0.21,0.06,-0.23,0.32
21.292,-0.55,0.12,-0.06,0.57
21.302,-0.88,0.30,-0.04,0.93
21.312,-1.53,0.52,-0.25,1.64
21.322,-0.71,0.56,0.05,0.91
21.332,-0.72,0.48,0.31,0.92
21.342,-0.92,0.37,0.40,1.07
21.352,-0.69,-0.04,0.30,0.75
21.362,-0.24,-0.31,0.13,0.41
21.372,0.04,-0.33,0.35,0.48
21.382,0.20,-0.57,0.50,0.78
21.392,0.64,-0.83,0.32,1.10
21.402,0.84,-1.03,0.26,1.35
21.412,0.61,-0.83,0.22,1.05
21.422,0.87,-0.67,0.16,1.11
21.432,1.02,-0.89,0.26,1.39
21.442,0.96,-0.81,0.00,1.25
21.452,0.86,-0.63,-0.56,1.20
21.462,0.65,-0.51,-0.83,1.17
21.472,0.66,-0.48,-0.97,1.26
21.482,0.52,-0.55,-0.88,1.16
21.492,0.22,-0.69,-0.71,1.02
21.502,0.46,-1.01,-0.70,1.31
21.512,0.66,-1.06,-0.74,1.45
21.522,0.26,-0.84,-0.60,1.07
21.532,0.14,-0.65,-0.41,0.79
21.542,0.50,-0.60,-0.42,0.88
21.552,0.89,-0.48,0.90,1.36
21.562,0.31,-0.90,0.78,1.23
21.572,0.72,-0.44,0.34,0.91
21.582,0.68,-0.19,0.55,0.90
21.592,0.70,-0.50,0.25,0.89
21.602,0.79,-0.49,-0.36,0.99
21.612,0.60,-0.65,-0.79,1.19
21.622,0.58,-0.89,-1.15,1.56
21.632,0.86,-0.87,-1.19,1.71
21.642,0.88,-0.84,-0.97,1.56
21.652,0.74,-0.74,-0.86,1.36
21.662,0.93,-0.67,-0.72,1.36
21.672,0.98,-0.68,-0.60,1.33
21.682,0.91,-0.58,-0.65,1.25
21.692,1.11,-0.23,-0.50,1.24
21.702,1.26,-0.70,0.15,1.45
21.712,1.07,-0.48,0.09,1.18
21.722,0.38,0.03,-0.13,0.40
21.732,0.00,-0.15,0.27,0.31
21.742,-0.06,0.03,0.18,0.19
21.752,0.06,0.15,0.07,0.17
21.762,-0.01,0.16,0.01,0.16
21.772,-0.02,0.09,0.00,0.09
21.782,0.00,0.09,0.00,0.09
21.792,-0.14,0.17,-0.00,0.22
21.802,-0.10,0.23,0.07,0.26
21.812,-0.07,0.22,0.12,0.26
21.822,-0.07,0.26,0.14,0.31
21.832,-0.10,0.13,0.16,0.22
21.842,-0.06,0.02,0.21,0.22
21.852,-0.04,-0.03,0.24,0.25
21.862,-0.05,-0.14,0.34,0.37
21.872,-0.07,-0.27,0.34,0.44
21.882,0.02,-0.18,0.31,0.36
21.892,0.12,-0.12,0.24,0.30
21.902,0.16,-0.16,0.12,0.26
21.912,0.13,-0.07,0.03,0.15
21.922,0.01,0.09,0.03,0.10
21.932,-0.10,0.24,0.08,0.27
21.942,-0.12,0.29,0.14,0.34
21.952,-0.19,0.27,0.17,0.38
21.962,-0.31,0.31,0.16,0.46
21.972,-0.36,0.29,0.05,0.46
21.982,-0.34,0.23,-0.05,0.42
21.992,-0.23,0.15,-0.15,0.31
22.002,-0.11,0.11,-0.21,0.26
22.012,0.04,0.07,-0.15,0.17
22.022,0.06,0.12,-0.12,0.19
22.032,-0.03,0.15,-0.09,0.18
22.042,-0.04,0.14,-0.09,0.17
22.052,-0.03,0.14,-0.17,0.22
22.062,-0.03,0.14,-0.28,0.32
22.072,0.03,0.16,-0.30,0.34
22.082,-0.01,0.08,-0.08,0.11
22.092,-0.32,0.00,0.26,0.41
22.102,-0.67,-0.03,0.50,0.83
22.112,-0.70,-0.11,0.58,0.92
22.122,-0.43,-0.12,0.44,0.63
22.132,-0.11,-0.10,0.18,0.23
22.142,0.22,-0.14,0.00,0.26
22.152,0.45,-0.23,-0.09,0.51
22.162,0.54,-0.24,-0.18,0.61
22.172,0.52,-0.23,-0.18,0.60
22.182,0.36,-0.22,-0.07,0.43
22.192,0.07,-0.23,-0.02,0.24
22.202,-0.06,-0.25,0.02,0.26
22.214,-0.22,-0.06,-0.03,0.23
22.223,-0.38,0.31,-0.28,0.56
22.232,-0.01,0.34,-0.31,0.46
22.242,0.35,0.05,-0.19,0.40
22.252,0.33,-0.00,-0.11,0.34
22.262,0.22,0.16,-0.26,0.37
22.272,0.30,0.12,-0.18,0.37
22.283,0.19,0.02,-0.03,0.20
22.293,0.04,0.06,-0.02,0.08
22.302,-0.03,0.04,-0.08,0.09
