time,ax,ay,az,atotal
0.000,-0.09,-0.01,0.18,0.20
0.010,-0.01,0.12,0.21,0.24
0.020,0.07,0.18,0.18,0.27
0.030,-0.04,0.29,0.09,0.30
0.040,-0.27,0.34,0.05,0.44
0.050,-0.39,0.29,0.04,0.48
0.060,-0.31,0.15,0.04,0.34
0.070,-0.21,0.06,-0.00,0.21
0.080,-0.18,-0.02,-0.01,0.18
0.090,-0.00,-0.39,-0.23,0.45
0.100,-0.02,-0.60,-0.10,0.61
0.110,-0.36,0.03,0.29,0.46
0.120,-0.60,0.16,0.15,0.64
0.130,-0.47,0.47,0.08,0.67
0.140,-0.36,0.54,-0.09,0.65
0.150,-0.18,0.31,-0.01,0.36
0.160,0.09,0.34,-0.09,0.36
0.170,0.09,0.30,-0.10,0.33
0.180,0.05,0.23,-0.09,0.25
0.190,-0.00,0.20,-0.03,0.20
0.200,-0.06,0.15,-0.00,0.16
0.210,-0.11,0.13,0.01,0.17
0.220,-0.15,0.12,0.00,0.19
0.230,-0.17,0.13,0.00,0.21
0.240,-0.15,0.15,-0.01,0.21
0.250,-0.15,0.14,0.00,0.20
0.260,-0.12,0.14,-0.03,0.19
0.270,-0.09,0.13,-0.05,0.17
0.280,-0.08,0.10,-0.07,0.15
0.290,-0.08,0.06,-0.07,0.12
0.300,-0.10,0.04,-0.06,0.13
0.310,-0.09,0.00,-0.03,0.09
0.320,-0.09,0.00,-0.00,0.09
0.330,-0.15,0.03,0.05,0.16
0.340,-0.18,0.02,0.09,0.20
0.350,-0.22,0.02,0.14,0.26
0.360,-0.25,0.00,0.13,0.28
0.370,-0.23,-0.02,0.11,0.25
0.380,-0.19,-0.05,0.11,0.22
0.390,-0.13,-0.09,0.11,0.19
0.400,-0.05,-0.14,0.09,0.17
0.410,-0.03,-0.16,0.11,0.20
0.420,-0.04,-0.11,0.12,0.17
0.430,-0.08,-0.06,0.11,0.15
0.440,-0.14,-0.04,0.11,0.18
0.450,-0.17,0.02,0.12,0.21
0.460,-0.16,0.05,0.11,0.20
0.470,-0.17,0.06,0.10,0.20
0.480,-0.21,0.03,0.08,0.23
0.490,-0.21,0.01,0.08,0.23
0.500,-0.20,-0.01,0.07,0.21
0.510,-0.17,-0.03,0.08,0.19
0.520,-0.11,-0.06,0.10,0.15
0.530,-0.07,-0.06,0.10,0.14
0.540,-0.04,-0.09,0.12,0.16
0.550,-0.09,-0.10,0.09,0.16
0.560,-0.15,-0.08,0.06,0.18
0.570,-0.15,-0.06,0.07,0.17
0.580,-0.14,-0.09,0.08,0.18
0.590,-0.14,-0.11,0.11,0.21
0.600,-0.16,-0.11,0.15,0.25
0.610,-0.18,-0.14,0.14,0.27
0.620,-0.19,-0.21,0.06,0.29
0.630,-0.20,-0.25,0.03,0.33
0.641,-0.18,-0.22,0.00,0.29
0.650,-0.15,-0.22,-0.05,0.27
0.660,-0.10,-0.26,-0.08,0.29
0.671,-0.06,-0.24,-0.08,0.26
0.681,-0.04,-0.22,-0.06,0.23
0.691,-0.02,-0.22,-0.01,0.22
0.701,0.02,-0.27,-0.03,0.27
0.711,0.04,-0.31,-0.00,0.31
0.721,0.01,-0.34,-0.01,0.34
0.730,-0.05,-0.35,-0.03,0.36
0.741,-0.15,-0.36,-0.01,0.39
0.751,-0.20,-0.42,-0.04,0.47
0.761,-0.20,-0.42,-0.04,0.47
0.771,-0.15,-0.41,-0.01,0.44
0.781,-0.10,-0.38,0.02,0.39
0.790,-0.04,-0.36,0.06,0.37
0.800,-0.02,-0.36,0.11,0.38
0.811,-0.04,-0.39,0.16,0.42
0.821,-0.09,-0.46,0.17,0.50
0.831,-0.10,-0.54,0.18,0.58
0.841,-0.13,-0.60,0.22,0.65
0.851,-0.16,-0.64,0.23,0.70
0.861,-0.15,-0.69,0.25,0.75
0.871,-0.12,-0.73,0.28,0.79
0.881,-0.09,-0.74,0.25,0.79
0.891,-0.02,-0.71,0.23,0.75
0.901,0.02,-0.69,0.16,0.71
0.911,-0.01,-0.60,0.06,0.61
0.921,-0.11,-0.52,-0.06,0.53
0.931,-0.17,-0.43,-0.17,0.50
0.941,-0.25,-0.36,-0.28,0.52
0.951,-0.31,-0.25,-0.38,0.55
0.961,-0.33,-0.15,-0.44,0.56
0.971,-0.42,-0.03,-0.45,0.62
0.981,-0.55,0.08,-0.44,0.70
0.991,-0.70,0.18,-0.33,0.80
1.001,-0.82,0.22,-0.18,0.87
1.011,-0.85,0.15,0.01,0.86
1.021,-0.73,-0.01,0.19,0.75
1.031,-0.50,-0.18,0.30,0.61
1.041,-0.14,-0.30,0.35,0.48
1.051,0.29,-0.40,0.29,0.57
1.061,0.67,-0.44,0.23,0.84
1.071,0.96,-0.40,0.25,1.08
1.081,1.16,-0.35,0.31,1.25
1.091,1.13,-0.16,0.44,1.23
1.101,0.77,0.08,0.66,1.02
1.111,0.25,0.22,0.80,0.87
1.121,-0.28,0.30,1.01,1.09
1.131,-0.75,0.22,1.25,1.47
1.141,-1.04,-0.09,1.60,1.90
1.151,-1.10,-0.53,1.64,2.04
1.161,-0.84,-1.02,1.51,2.00
1.171,-0.44,-1.25,1.42,1.94
1.181,0.05,-1.27,1.30,1.81
1.191,0.52,-1.10,1.13,1.66
1.201,0.84,-0.86,1.04,1.59
1.211,0.97,-0.56,0.91,1.45
1.221,0.83,-0.24,0.79,1.18
1.231,0.54,0.11,0.84,1.00
1.241,0.17,0.40,0.86,0.97
1.251,-0.25,0.50,0.78,0.96
1.261,-0.54,0.37,0.74,0.99
1.271,-0.75,0.17,0.71,1.04
1.281,-0.84,-0.02,0.58,1.03
1.291,-0.87,-0.05,0.51,1.01
1.301,-0.92,0.00,0.46,1.03
1.311,-0.88,0.10,0.44,0.99
1.321,-0.85,0.18,0.43,0.97
1.331,-0.87,0.30,0.46,1.03
1.341,-0.88,0.36,0.52,1.08
1.351,-0.89,0.33,0.60,1.12
1.361,-0.87,0.28,0.63,1.11
1.371,-0.81,0.18,0.54,0.99
1.381,-0.69,0.11,0.47,0.84
1.391,-0.59,0.07,0.42,0.73
1.401,-0.64,0.07,0.50,0.82
1.411,-0.77,0.04,0.51,0.92
1.421,-0.84,-0.00,0.50,0.98
1.431,-0.76,-0.08,0.56,0.95
1.441,-0.68,-0.19,0.63,0.95
1.451,-0.59,-0.31,0.72,0.98
1.461,-0.60,-0.34,0.82,1.07
1.471,-0.63,-0.35,0.97,1.21
1.481,-0.71,-0.36,1.11,1.36
1.491,-0.77,-0.39,1.20,1.48
1.501,-0.79,-0.46,1.29,1.58
1.511,-0.74,-0.50,1.33,1.61
1.521,-0.69,-0.57,1.33,1.60
1.531,-0.59,-0.63,1.31,1.57
1.541,-0.44,-0.68,1.32,1.55
1.551,-0.22,-0.72,1.22,1.44
1.561,-0.05,-0.70,1.18,1.37
1.571,0.06,-0.66,1.22,1.38
1.581,0.07,-0.61,1.31,1.45
1.591,0.05,-0.57,1.45,1.56
1.601,-0.05,-0.51,1.59,1.67
1.611,-0.09,-0.43,1.69,1.74
1.621,-0.11,-0.33,1.84,1.87
1.631,-0.16,-0.18,1.95,1.96
1.641,-0.22,0.00,2.00,2.02
1.651,-0.21,0.16,2.06,2.07
1.661,-0.13,0.21,2.16,2.17
1.671,-0.05,0.17,2.30,2.30
1.681,-0.05,0.02,2.45,2.45
1.691,-0.13,-0.15,2.53,2.54
1.701,-0.10,-0.27,2.66,2.68
1.711,-0.03,-0.43,2.67,2.71
1.721,0.08,-0.62,2.58,2.65
1.731,0.55,-0.64,2.21,2.36
1.741,1.30,-0.35,1.38,1.93
1.751,1.83,0.15,0.63,1.94
1.761,1.98,0.72,0.40,2.14
1.771,1.89,1.34,0.06,2.32
1.781,1.67,1.95,-0.60,2.64
1.791,1.37,2.33,-0.83,2.82
1.801,1.14,2.49,-0.96,2.90
1.811,1.24,2.50,-1.22,3.04
1.821,1.34,2.35,-1.43,3.06
1.831,0.79,1.95,-1.53,2.60
1.841,-0.01,1.46,-1.44,2.05
1.851,-0.91,0.95,-1.36,1.89
1.861,-1.76,0.51,-1.33,2.26
1.871,-2.20,0.26,-1.24,2.53
1.881,-2.05,0.14,-1.42,2.50
1.891,-1.47,0.15,-1.73,2.27
1.901,-0.55,0.13,-1.98,2.06
1.911,0.26,0.04,-2.15,2.17
1.921,0.78,-0.09,-2.16,2.30
1.931,1.04,-0.18,-1.92,2.19
1.941,1.04,-0.27,-1.66,1.97
1.951,0.71,-0.26,-1.38,1.57
1.961,0.14,-0.18,-1.13,1.15
1.972,-0.30,-0.08,-0.98,1.03
1.981,-0.60,0.02,-0.81,1.01
1.991,-0.71,0.10,-0.68,0.99
2.001,-0.73,0.15,-0.68,1.01
2.011,-0.76,0.23,-0.71,1.06
2.021,-0.74,0.32,-0.63,1.02
2.031,-0.73,0.32,-0.57,0.98
2.042,-0.76,0.26,-0.52,0.96
2.051,-0.77,0.15,-0.49,0.93
2.062,-0.71,0.01,-0.47,0.86
2.071,-0.61,-0.17,-0.43,0.76
2.081,-0.56,-0.32,-0.34,0.73
2.091,-0.60,-0.46,-0.22,0.79
2.102,-0.70,-0.62,-0.08,0.94
2.111,-0.85,-0.81,0.07,1.17
2.122,-0.85,-0.88,0.22,1.24
2.132,-0.80,-0.94,0.32,1.28
2.141,-0.73,-0.96,0.46,1.29
2.151,-0.62,-0.95,0.52,1.25
2.162,-0.51,-0.94,0.61,1.23
2.172,-0.42,-0.93,0.66,1.22
2.181,-0.44,-0.92,0.68,1.22
2.192,-0.53,-0.85,0.67,1.21
2.202,-0.68,-0.72,0.64,1.17
2.212,-0.83,-0.57,0.54,1.14
2.222,-0.87,-0.42,0.46,1.07
2.232,-0.85,-0.29,0.41,0.98
2.242,-0.80,-0.19,0.41,0.92
2.252,-0.76,-0.12,0.43,0.88
2.262,-0.78,-0.15,0.40,0.89
2.272,-0.85,-0.22,0.37,0.96
2.282,-0.81,-0.31,0.38,0.95
2.292,-0.80,-0.49,0.38,1.01
2.302,-0.70,-0.65,0.38,1.03
2.312,-0.60,-0.87,0.47,1.16
2.322,-0.50,-1.14,0.56,1.36
2.332,-0.33,-1.34,0.62,1.51
2.342,-0.28,-1.47,0.72,1.66
2.352,-0.20,-1.62,0.67,1.77
2.362,0.01,-1.73,0.52,1.80
2.372,0.25,-1.77,0.40,1.84
2.382,0.42,-1.66,0.44,1.77
2.392,0.56,-1.54,0.47,1.71
2.402,0.84,-1.39,0.44,1.68
2.412,1.14,-1.19,0.49,1.71
2.422,1.33,-0.97,0.60,1.76
2.432,1.44,-0.79,0.86,1.86
2.442,1.45,-0.83,1.19,2.06
2.452,1.42,-1.06,1.65,2.42
2.462,1.34,-1.33,2.10,2.83
2.472,1.48,-1.66,2.36,3.24
2.482,1.71,-1.98,2.40,3.55
2.492,1.82,-2.13,2.23,3.58
2.502,1.96,-1.98,2.04,3.45
2.512,2.09,-1.87,1.65,3.25
2.522,2.02,-1.52,1.16,2.78
2.532,1.73,-0.89,0.58,2.03
2.542,1.45,-0.19,-0.04,1.46
2.552,0.97,0.46,-0.65,1.25
2.562,0.14,0.88,-1.19,1.49
2.572,-0.45,1.29,-1.80,2.25
2.582,-0.57,1.70,-2.49,3.07
2.592,-0.52,2.07,-2.98,3.66
2.602,-0.42,2.47,-2.79,3.76
2.612,-0.30,2.78,-2.73,3.91
2.622,0.06,2.99,-2.40,3.83
2.632,0.42,3.06,-1.77,3.56
2.642,0.37,2.90,-1.05,3.11
2.652,0.24,2.41,-0.46,2.46
2.662,0.11,1.53,-0.18,1.54
2.672,-0.03,0.49,-0.12,0.51
2.682,0.12,-0.33,-0.30,0.46
2.692,0.27,-0.72,-0.72,1.05
2.702,0.46,-0.73,-0.90,1.25
2.712,0.30,-0.56,-0.95,1.15
2.722,-0.22,-0.21,-0.88,0.94
2.732,-0.91,0.23,-0.55,1.09
2.742,-1.44,0.59,-0.17,1.56
2.752,-1.87,0.75,0.12,2.02
2.762,-2.26,0.81,0.31,2.43
2.772,-2.43,0.80,0.43,2.59
2.782,-2.25,0.59,0.50,2.38
2.792,-1.82,0.22,0.60,1.93
2.802,-1.16,-0.09,0.71,1.37
2.812,-0.58,-0.36,0.79,1.04
2.822,-0.27,-0.53,0.89,1.07
2.832,-0.14,-0.55,0.94,1.10
2.842,-0.12,-0.51,0.88,1.02
2.852,-0.24,-0.31,0.80,0.89
2.862,-0.47,-0.09,0.65,0.81
2.872,-0.76,0.10,0.48,0.90
2.882,-1.03,0.24,0.37,1.13
2.892,-1.29,0.24,0.31,1.35
2.902,-1.44,0.12,0.22,1.46
2.912,-1.47,-0.00,0.18,1.48
2.922,-1.53,-0.15,0.24,1.56
2.932,-1.52,-0.27,0.43,1.60
2.942,-1.40,-0.41,0.64,1.60
2.952,-1.25,-0.52,0.74,1.54
2.962,-1.08,-0.61,0.86,1.51
2.972,-0.94,-0.64,0.95,1.48
2.982,-0.77,-0.44,0.88,1.25
2.992,-0.61,-0.05,0.74,0.96
3.002,-0.50,0.33,0.79,0.99
3.012,-0.31,0.57,0.94,1.14
3.022,-0.27,0.63,1.01,1.22
3.032,-0.34,0.65,0.93,1.19
3.042,-0.37,0.85,0.63,1.12
3.052,-0.22,1.15,0.66,1.34
3.062,0.01,1.29,0.83,1.53
3.072,0.19,1.29,0.92,1.59
3.082,0.44,1.21,1.06,1.67
3.092,0.66,1.02,1.36,1.83
3.102,0.81,0.66,1.75,2.04
3.112,0.91,0.29,2.18,2.38
3.122,0.97,-0.14,2.58,2.76
3.132,0.83,-0.69,2.95,3.15
3.142,0.51,-1.20,3.12,3.39
3.152,0.45,-1.56,2.96,3.38
3.162,1.14,-1.45,2.32,2.96
3.172,2.23,-0.79,1.33,2.72
3.182,2.82,-0.01,0.91,2.96
3.192,3.15,1.11,0.67,3.40
3.202,3.20,2.57,-0.54,4.14
3.212,2.62,3.45,-1.66,4.64
3.222,1.62,3.55,-2.28,4.52
3.232,1.23,3.25,-3.01,4.59
3.242,1.07,2.78,-3.57,4.65
3.252,0.87,2.18,-3.59,4.29
3.262,0.77,1.41,-3.01,3.41
3.272,0.19,0.39,-2.93,2.96
3.282,-0.69,-0.56,-2.41,2.57
3.292,-1.29,-1.19,-2.26,2.87
3.302,-1.60,-1.09,-2.31,3.01
3.312,-1.52,-0.47,-2.29,2.79
3.322,-1.16,0.24,-2.26,2.55
3.332,-0.52,0.79,-2.18,2.37
3.342,0.32,1.06,-2.22,2.48
3.352,0.91,1.26,-2.32,2.79
3.362,0.79,1.34,-2.30,2.78
3.372,0.27,1.25,-2.08,2.44
3.382,-0.23,1.05,-1.78,2.08
3.392,-0.67,0.72,-1.36,1.68
3.402,-1.05,0.32,-1.06,1.53
3.412,-1.34,-0.03,-0.89,1.61
3.423,-1.53,-0.30,-0.81,1.76
3.432,-1.78,-0.43,-0.68,1.95
3.442,-2.00,-0.46,-0.57,2.13
3.452,-1.96,-0.37,-0.54,2.07
3.462,-1.77,-0.25,-0.49,1.85
3.473,-1.42,-0.15,-0.46,1.50
3.482,-0.94,-0.09,-0.39,1.02
3.492,-0.51,-0.10,-0.30,0.60
3.502,-0.26,-0.23,-0.16,0.39
3.512,-0.25,-0.38,-0.04,0.46
3.523,-0.48,-0.51,0.07,0.70
3.532,-0.82,-0.73,0.15,1.11
3.543,-1.12,-0.95,0.19,1.48
3.552,-1.22,-1.18,0.21,1.71
3.562,-1.13,-1.31,0.31,1.76
3.572,-0.98,-1.37,0.35,1.72
3.583,-0.78,-1.30,0.32,1.55
3.593,-0.71,-1.18,0.35,1.42
3.603,-0.73,-1.05,0.45,1.35
3.612,-0.79,-0.86,0.50,1.27
3.623,-0.92,-0.67,0.57,1.27
3.633,-1.05,-0.55,0.68,1.36
3.643,-1.11,-0.48,0.74,1.42
3.653,-1.09,-0.44,0.74,1.38
3.663,-0.90,-0.45,0.67,1.21
3.673,-0.51,-0.53,0.64,0.97
3.683,-0.22,-0.77,0.70,1.06
3.693,-0.03,-1.23,0.68,1.40
3.703,0.21,-1.80,0.53,1.89
3.713,0.52,-2.30,0.33,2.38
3.723,1.01,-2.16,0.30,2.40
3.733,1.13,-1.75,0.14,2.09
3.743,1.05,-1.16,0.08,1.57
3.753,0.83,-0.79,0.15,1.15
3.763,0.55,-0.87,0.27,1.07
3.773,0.41,-1.15,0.51,1.32
3.783,0.51,-1.28,0.82,1.61
3.793,0.74,-1.07,1.22,1.78
3.803,0.62,-0.75,1.47,1.77
3.813,0.40,-0.54,1.41,1.56
3.823,0.42,-0.22,1.16,1.26
3.833,0.68,0.22,0.83,1.10
3.843,0.91,0.42,0.58,1.16
3.853,1.19,0.42,0.85,1.52
3.863,1.61,-0.27,0.87,1.86
3.873,2.05,-0.99,0.45,2.32
3.883,1.79,-1.10,-0.14,2.10
3.893,1.39,-0.78,-0.82,1.79
3.903,0.90,-0.20,-1.23,1.53
3.913,-0.05,-0.03,-1.57,1.57
3.923,-0.31,-0.10,-2.42,2.44
3.933,0.15,0.22,-2.77,2.78
3.943,0.78,0.86,-2.55,2.80
3.953,1.42,1.55,-2.43,3.21
3.963,1.90,2.16,-2.14,3.58
3.973,2.25,2.59,-1.69,3.83
3.983,2.42,2.72,-1.22,3.84
3.994,2.15,2.33,-0.71,3.24
4.002,1.51,1.49,-0.19,2.13
4.012,0.81,0.48,0.19,0.96
4.022,0.34,-0.28,0.29,0.53
4.032,0.13,-0.58,0.21,0.63
4.042,-0.21,-0.43,-0.04,0.48
4.052,-0.67,-0.14,-0.27,0.74
4.062,-1.21,0.06,-0.36,1.26
4.072,-1.75,0.04,-0.33,1.79
4.082,-2.25,-0.12,-0.26,2.27
4.092,-2.51,-0.31,-0.19,2.54
4.102,-2.53,-0.35,-0.06,2.55
4.112,-2.20,-0.27,0.06,2.21
4.122,-1.75,-0.06,0.07,1.75
4.132,-1.25,0.14,0.00,1.26
4.142,-0.88,0.31,-0.03,0.94
4.152,-0.63,0.42,-0.02,0.76
4.162,-0.39,0.47,-0.00,0.61
4.172,-0.23,0.50,0.02,0.55
4.182,-0.30,0.54,0.07,0.62
4.192,-0.56,0.57,0.11,0.81
4.202,-0.96,0.56,0.18,1.13
4.212,-1.35,0.44,0.26,1.45
4.222,-1.59,0.29,0.31,1.65
4.232,-1.70,0.14,0.37,1.75
4.242,-1.72,0.06,0.43,1.77
4.252,-1.72,-0.05,0.46,1.79
4.262,-1.69,-0.19,0.48,1.76
4.272,-1.63,-0.34,0.54,1.75
4.282,-1.56,-0.45,0.62,1.74
4.292,-1.45,-0.53,0.67,1.68
4.302,-1.27,-0.50,0.69,1.53
4.312,-1.11,-0.42,0.72,1.39
4.322,-0.93,-0.22,0.82,1.25
4.332,-0.78,0.14,0.94,1.23
4.342,-0.65,0.62,0.90,1.27
4.352,-0.56,1.11,0.84,1.50
4.362,-0.43,1.46,0.82,1.73
4.372,-0.27,1.58,0.80,1.79
4.382,-0.25,1.49,0.72,1.68
4.392,-0.25,1.39,0.60,1.54
4.402,-0.16,1.22,0.68,1.41
4.412,0.03,0.83,0.79,1.15
4.422,0.24,0.50,0.97,1.12
4.432,0.56,0.27,1.44,1.57
4.442,0.78,0.05,1.88,2.03
4.452,0.77,-0.20,2.33,2.47
4.462,0.66,-0.48,2.75,2.87
4.472,0.48,-0.80,2.91,3.05
4.482,0.51,-1.11,2.88,3.13
4.492,0.85,-1.38,2.75,3.19
4.502,1.85,-1.16,2.05,3.00
4.512,3.03,-0.56,1.30,3.34
4.522,3.62,-0.04,0.80,3.71
4.532,4.01,0.79,0.16,4.09
4.542,4.18,1.75,-0.93,4.62
4.552,3.53,2.32,-1.97,4.66
4.562,2.47,2.87,-2.95,4.80
4.572,1.68,3.41,-3.34,5.07
4.582,0.85,3.45,-3.61,5.06
4.592,0.05,3.18,-3.78,4.94
4.602,-0.72,2.32,-3.14,3.97
4.612,-1.45,0.79,-2.53,3.02
4.622,-1.70,-0.60,-2.08,2.75
4.632,-1.61,-1.44,-1.90,2.88
4.642,-1.33,-1.66,-2.03,2.94
4.652,-0.86,-1.12,-2.30,2.70
4.662,-0.35,-0.04,-2.36,2.39
4.672,0.15,1.02,-2.26,2.49
4.682,0.66,1.79,-2.19,2.91
4.692,0.81,2.17,-2.27,3.24
4.702,0.48,2.11,-2.19,3.08
4.712,0.03,1.72,-1.82,2.51
4.722,-0.38,1.24,-1.34,1.86
4.732,-0.88,0.80,-0.95,1.52
4.742,-1.47,0.39,-0.67,1.66
4.752,-1.93,-0.07,-0.58,2.02
4.762,-2.11,-0.50,-0.54,2.24
4.772,-2.14,-0.86,-0.52,2.36
4.782,-1.95,-1.03,-0.44,2.25
4.792,-1.50,-1.08,-0.39,1.88
4.802,-1.08,-1.00,-0.36,1.52
4.812,-0.61,-0.86,-0.32,1.10
4.822,-0.17,-0.80,-0.25,0.85
4.832,0.01,-0.83,-0.13,0.84
4.842,-0.14,-0.91,0.00,0.92
4.852,-0.52,-1.02,0.12,1.15
4.862,-0.95,-1.20,0.16,1.53
4.872,-1.27,-1.36,0.23,1.88
4.882,-1.41,-1.36,0.29,1.98
4.892,-1.44,-1.26,0.24,1.93
4.902,-1.37,-1.04,0.27,1.75
4.912,-1.27,-0.82,0.31,1.55
4.922,-1.18,-0.63,0.31,1.37
4.932,-1.10,-0.51,0.23,1.23
4.942,-0.99,-0.43,0.22,1.10
4.952,-0.93,-0.43,0.28,1.06
4.962,-0.84,-0.42,0.36,1.01
4.972,-0.70,-0.34,0.46,0.91
4.982,-0.54,-0.27,0.62,0.87
4.992,-0.31,-0.36,0.80,0.93
5.002,-0.10,-0.68,0.89,1.12
5.012,0.02,-1.20,0.87,1.48
5.022,0.10,-1.75,0.69,1.88
5.032,0.18,-2.04,0.56,2.12
5.042,0.24,-1.95,0.57,2.05
5.052,0.16,-1.64,0.62,1.76
5.062,0.17,-1.31,0.43,1.39
5.072,0.17,-0.85,0.43,0.97
5.082,0.01,-0.63,0.52,0.82
5.092,-0.02,-0.73,0.59,0.94
5.102,0.14,-0.94,0.77,1.23
5.112,0.38,-1.07,1.02,1.52
5.122,0.58,-1.06,1.22,1.71
5.132,0.66,-1.04,1.29,1.78
5.142,0.92,-1.00,1.22,1.83
5.152,1.32,-0.63,1.04,1.79
5.162,1.36,-0.35,0.71,1.57
5.172,1.53,-0.20,0.73,1.71
5.182,2.12,-0.38,0.69,2.26
5.192,2.90,-0.80,0.27,3.02
5.202,2.94,-0.59,-0.25,3.01
5.212,2.63,0.12,-0.62,2.70
5.222,1.69,0.73,-0.97,2.09
5.232,0.54,0.83,-1.38,1.70
5.242,0.45,0.76,-1.60,1.83
5.252,1.00,1.07,-2.43,2.83
5.262,1.23,1.81,-2.44,3.28
5.272,1.25,2.30,-1.97,3.27
5.282,1.21,2.39,-1.56,3.10
5.292,1.25,2.24,-1.20,2.83
5.303,1.22,1.74,-0.83,2.28
5.312,1.11,0.89,-0.34,1.46
5.322,0.76,-0.05,0.03,0.77
5.333,0.12,-0.86,0.30,0.92
5.342,-0.39,-1.27,0.31,1.36
5.352,-0.78,-0.98,0.32,1.29
5.363,-1.07,-0.21,0.16,1.10
5.372,-1.38,0.52,-0.06,1.47
5.383,-1.69,1.01,-0.16,1.98
5.393,-1.95,1.12,-0.28,2.27
5.403,-1.99,0.93,-0.34,2.22
5.413,-1.88,0.58,-0.42,2.01
5.423,-1.59,0.29,-0.46,1.68
5.432,-1.33,0.13,-0.49,1.42
5.443,-1.06,0.07,-0.47,1.16
5.453,-1.01,0.08,-0.49,1.12
5.462,-1.05,0.25,-0.46,1.17
5.473,-1.01,0.56,-0.43,1.24
5.482,-0.91,0.77,-0.29,1.23
5.493,-0.63,1.06,-0.21,1.25
5.503,-0.56,1.27,-0.14,1.39
5.513,-0.70,1.43,-0.11,1.60
5.523,-0.82,1.55,-0.06,1.76
5.533,-1.11,1.54,0.01,1.89
5.543,-1.44,1.31,0.15,1.95
5.553,-1.54,0.99,0.24,1.85
5.563,-1.48,0.64,0.32,1.64
5.573,-1.38,0.33,0.43,1.48
5.583,-1.39,-0.03,0.47,1.47
5.593,-1.31,-0.29,0.57,1.46
5.603,-1.22,-0.47,0.68,1.47
5.613,-1.24,-0.61,0.74,1.57
5.623,-1.27,-0.60,0.87,1.66
5.633,-1.32,-0.55,0.88,1.68
5.643,-1.37,-0.39,0.86,1.66
5.653,-1.33,-0.09,0.88,1.60
5.663,-1.13,0.25,0.90,1.47
5.673,-0.79,0.51,1.07,1.42
5.683,-0.43,0.65,1.12,1.37
5.693,0.01,0.66,1.16,1.34
5.703,0.34,0.56,1.11,1.29
5.713,0.49,0.45,1.05,1.24
5.723,0.57,0.49,1.01,1.26
5.733,0.76,0.55,1.19,1.51
5.743,0.93,0.48,1.58,1.89
5.753,0.92,0.24,2.03,2.25
5.763,0.76,-0.07,2.57,2.68
5.773,0.47,-0.36,3.11,3.16
5.783,0.26,-0.66,3.57,3.64
5.793,0.24,-0.96,3.57,3.71
5.803,0.94,-0.88,2.90,3.17
5.813,2.37,-0.64,1.73,3.01
5.823,3.48,-0.58,0.82,3.62
5.833,4.42,-0.30,-0.13,4.43
5.843,5.29,0.98,-1.69,5.64
5.853,5.37,2.63,-2.81,6.61
5.863,3.94,3.67,-3.46,6.40
5.873,2.00,4.22,-3.40,5.78
5.883,0.20,4.06,-3.77,5.54
5.893,-0.60,3.55,-3.50,5.02
5.903,-0.76,2.55,-2.58,3.71
5.913,-1.21,0.98,-2.21,2.70
5.923,-1.45,-0.28,-1.89,2.40
5.933,-1.24,-0.99,-2.02,2.56
5.943,-0.63,-1.03,-2.13,2.45
5.953,-0.15,-0.43,-2.36,2.41
5.963,-0.12,0.60,-2.52,2.59
5.973,-0.34,1.34,-2.40,2.77
5.983,-0.33,1.67,-2.22,2.80
5.993,-0.04,1.76,-2.10,2.74
6.003,0.33,1.69,-2.02,2.66
6.013,0.07,1.25,-1.81,2.20
6.023,-0.39,0.88,-1.45,1.74
6.033,-0.74,0.60,-1.25,1.57
6.043,-1.28,0.27,-1.11,1.72
6.053,-1.89,-0.03,-1.00,2.14
6.063,-2.26,-0.27,-0.98,2.48
6.073,-2.44,-0.45,-0.96,2.67
6.083,-2.51,-0.58,-0.98,2.76
6.093,-2.27,-0.62,-0.86,2.50
6.103,-1.70,-0.60,-0.78,1.96
6.113,-1.19,-0.55,-0.74,1.50
6.123,-0.89,-0.46,-0.62,1.18
6.133,-0.71,-0.41,-0.51,0.96
6.143,-0.62,-0.52,-0.35,0.88
6.153,-0.68,-0.79,-0.22,1.07
6.163,-0.72,-1.10,-0.07,1.31
6.173,-0.73,-1.39,0.07,1.57
6.183,-0.72,-1.59,0.22,1.76
6.193,-0.72,-1.64,0.39,1.83
6.203,-0.75,-1.54,0.53,1.80
6.213,-0.79,-1.35,0.63,1.69
6.223,-0.81,-1.18,0.69,1.59
6.233,-0.88,-1.02,0.71,1.52
6.243,-0.98,-0.83,0.72,1.47
6.253,-1.10,-0.64,0.67,1.44
6.263,-1.22,-0.52,0.59,1.45
6.273,-1.16,-0.53,0.60,1.41
6.283,-0.91,-0.63,0.69,1.31
6.293,-0.56,-0.76,0.76,1.21
6.303,-0.27,-0.87,0.77,1.19
6.313,-0.09,-1.01,0.55,1.15
6.323,0.03,-1.06,0.33,1.12
6.333,0.04,-0.98,0.27,1.02
6.343,0.02,-0.83,0.32,0.89
6.353,0.04,-0.74,0.41,0.84
6.363,0.12,-0.78,0.48,0.93
6.373,0.22,-0.88,0.36,0.97
6.383,0.26,-0.85,0.49,1.02
6.393,0.16,-1.05,0.73,1.29
6.403,0.24,-1.37,0.93,1.68
6.413,0.49,-1.53,1.11,1.95
6.423,0.74,-1.54,1.34,2.17
6.433,0.85,-1.35,1.50,2.19
6.443,0.90,-1.17,1.42,2.05
6.453,0.97,-1.06,1.25,1.91
6.464,1.19,-0.90,1.18,1.91
6.473,1.81,-0.56,1.23,2.26
6.483,2.54,-0.35,1.05,2.77
6.493,2.75,-0.02,0.56,2.81
6.503,2.67,0.48,0.24,2.73
6.513,2.46,0.65,-0.15,2.55
6.523,1.69,0.48,-0.63,1.87
6.533,0.86,0.13,-1.03,1.35
6.543,0.71,-0.23,-1.47,1.65
6.553,0.93,-0.39,-1.93,2.18
6.563,0.87,-0.19,-2.65,2.80
6.573,0.75,0.27,-2.74,2.85
6.584,0.91,0.84,-2.55,2.84
6.593,1.14,1.23,-2.29,2.84
6.603,1.09,1.25,-1.89,2.51
6.613,0.88,1.14,-1.44,2.04
6.623,0.61,1.06,-0.97,1.56
6.633,0.23,1.00,-0.63,1.20
6.643,-0.07,0.94,-0.57,1.10
6.653,-0.27,0.94,-0.67,1.18
6.663,-0.45,0.96,-0.79,1.32
6.673,-0.63,1.01,-0.92,1.51
6.683,-0.75,1.08,-0.87,1.58
6.693,-0.96,1.11,-0.69,1.62
6.704,-1.16,1.10,-0.54,1.68
6.713,-1.39,1.03,-0.39,1.77
6.724,-1.67,0.87,-0.29,1.91
6.733,-1.77,0.63,-0.22,1.89
6.744,-1.70,0.55,-0.29,1.81
6.753,-1.47,1.18,-0.20,1.89
6.764,-0.98,-0.50,-0.10,1.10
6.773,-0.75,-1.25,-0.34,1.50
6.783,-0.43,-0.11,0.08,0.45
6.793,-0.32,0.55,0.01,0.63
6.804,-0.43,0.76,0.02,0.87
6.813,-0.65,1.16,0.13,1.34
6.824,-1.00,1.30,0.19,1.65
6.833,-1.30,1.33,0.24,1.88
6.844,-1.54,1.20,0.28,1.98
6.854,-1.67,0.92,0.25,1.92
6.864,-1.71,0.59,0.22,1.82
6.874,-1.65,0.36,0.25,1.71
6.884,-1.57,0.14,0.26,1.60
6.894,-1.44,-0.08,0.34,1.48
6.904,-1.35,-0.29,0.43,1.44
6.914,-1.24,-0.46,0.49,1.41
6.924,-1.11,-0.52,0.60,1.36
6.933,-1.06,-0.45,0.72,1.35
6.944,-1.05,-0.24,0.85,1.38
6.954,-1.01,0.11,0.86,1.33
6.964,-0.85,0.50,0.85,1.31
6.974,-0.53,0.80,1.02,1.40
6.984,-0.05,0.89,1.07,1.39
6.994,0.35,0.94,1.07,1.47
7.004,0.57,0.98,0.92,1.46
7.014,0.60,1.01,0.52,1.29
7.024,0.64,1.13,0.48,1.38
7.034,0.60,1.00,0.81,1.42
7.044,0.50,0.76,1.09,1.42
7.054,0.47,0.58,1.51,1.68
7.064,0.50,0.38,1.88,1.98
7.074,0.51,0.11,2.33,2.39
7.084,0.38,-0.26,2.79,2.83
7.094,0.17,-0.69,3.10,3.17
7.104,0.10,-1.03,3.22,3.38
7.114,0.49,-1.35,3.00,3.32
7.124,1.69,-1.43,2.24,3.15
7.134,2.84,-1.35,1.22,3.38
7.144,3.68,-0.83,0.80,3.86
7.154,4.13,0.50,0.47,4.18
7.164,3.61,1.89,-0.32,4.09
7.174,2.06,2.62,-0.84,3.44
7.184,-0.02,2.68,-1.40,3.02
7.194,-1.33,2.17,-2.00,3.23
7.204,-1.91,1.30,-2.53,3.43
7.214,-1.15,0.96,-2.74,3.12
7.224,0.23,1.00,-2.98,3.15
7.234,0.76,0.50,-2.94,3.08
7.244,0.81,-0.07,-2.56,2.69
7.254,0.55,-0.17,-2.68,2.74
7.264,-0.03,0.04,-2.72,2.72
7.274,-0.24,0.40,-2.67,2.71
7.284,-0.12,0.92,-2.53,2.69
7.294,0.03,1.49,-2.25,2.70
7.304,0.12,1.95,-1.97,2.77
7.314,-0.01,2.11,-1.76,2.75
7.324,-0.20,1.82,-1.61,2.44
7.334,-0.37,1.29,-1.39,1.93
7.344,-0.57,0.75,-1.11,1.45
7.354,-0.81,0.28,-0.83,1.20
7.364,-1.08,-0.13,-0.69,1.29
7.374,-1.27,-0.48,-0.63,1.49
7.384,-1.29,-0.75,-0.57,1.60
7.394,-1.32,-1.04,-0.54,1.76
7.404,-1.60,-1.30,-0.54,2.14
7.414,-1.88,-1.43,-0.49,2.42
7.424,-1.80,-1.46,-0.50,2.37
7.434,-1.50,-1.36,-0.59,2.11
7.444,-1.22,-1.20,-0.63,1.82
7.454,-0.88,-0.94,-0.50,1.38
7.464,-0.65,-0.68,-0.33,1.00
7.474,-0.66,-0.44,-0.09,0.80
7.484,-0.71,-0.33,0.08,0.79
7.494,-0.73,-0.31,0.15,0.81
7.504,-0.85,-0.37,0.25,0.96
7.514,-0.97,-0.53,0.28,1.14
7.524,-1.01,-0.65,0.23,1.23
7.534,-1.05,-0.75,0.23,1.31
7.544,-1.11,-0.84,0.26,1.42
7.554,-1.14,-0.91,0.30,1.49
7.564,-1.14,-0.87,0.38,1.49
7.574,-1.11,-0.74,0.49,1.42
7.584,-1.03,-0.65,0.57,1.35
7.594,-0.97,-0.60,0.62,1.30
7.604,-0.85,-0.60,0.66,1.23
7.614,-0.64,-0.61,0.80,1.19
7.624,-0.36,-0.60,0.90,1.15
7.634,-0.13,-0.48,0.97,1.09
7.644,-0.08,-0.42,0.99,1.08
7.654,-0.11,-0.56,0.86,1.04
7.664,-0.07,-0.89,0.70,1.14
7.674,0.10,-1.26,0.59,1.40
7.684,0.37,-1.42,0.55,1.57
7.694,0.66,-1.38,0.59,1.64
7.704,0.71,-1.33,0.62,1.63
7.714,0.59,-1.24,0.82,1.60
7.724,0.51,-1.20,1.03,1.66
7.734,0.60,-1.10,1.24,1.77
7.744,0.83,-0.97,1.43,1.92
7.754,1.17,-0.80,1.48,2.05
7.764,1.58,-0.76,1.33,2.20
7.774,2.04,-0.65,0.99,2.36
7.784,2.57,-0.25,1.05,2.79
7.794,3.00,-0.32,1.07,3.20
7.804,3.12,-0.61,0.71,3.26
7.814,2.84,-0.47,0.24,2.89
7.824,2.75,-0.22,-0.58,2.82
7.834,3.02,-0.16,-1.69,3.46
7.844,3.12,0.15,-2.63,4.09
7.854,2.84,0.85,-3.10,4.29
7.864,2.45,1.54,-3.26,4.36
7.874,2.14,2.12,-3.17,4.37
7.884,1.53,2.71,-3.17,4.44
7.894,0.48,3.07,-2.53,4.01
7.904,-0.55,2.95,-1.76,3.48
7.914,-1.13,2.42,-0.99,2.85
7.924,-1.23,1.50,-0.46,2.00
7.934,-1.13,0.46,-0.14,1.23
7.944,-1.06,-0.49,0.12,1.18
7.954,-1.06,-1.20,0.01,1.60
7.964,-0.96,-1.34,-0.40,1.70
7.974,-1.02,-0.90,-0.61,1.49
7.984,-0.85,-0.36,-0.75,1.19
7.994,-0.62,0.05,-0.84,1.04
8.004,-0.69,0.40,-0.82,1.14
8.014,-1.01,0.66,-0.65,1.37
8.024,-1.38,0.88,-0.56,1.73
8.034,-1.65,1.01,-0.42,1.99
8.044,-1.82,1.03,-0.19,2.10
8.054,-1.83,0.82,-0.06,2.00
8.064,-1.80,0.48,-0.00,1.87
8.074,-1.71,0.13,0.02,1.72
8.084,-1.65,-0.19,0.11,1.66
8.094,-1.47,-0.46,0.18,1.55
8.104,-1.24,-0.58,0.25,1.39
8.114,-1.11,-0.59,0.40,1.32
8.124,-1.16,-0.58,0.40,1.35
8.135,-1.12,-0.43,0.48,1.29
8.144,-1.03,-0.20,0.51,1.17
8.154,-0.96,0.06,0.43,1.06
8.164,-0.86,0.32,0.43,1.01
8.175,-0.74,0.45,0.47,0.98
8.184,-0.71,0.52,0.58,1.05
8.194,-0.86,0.49,0.73,1.23
8.204,-1.07,0.38,0.89,1.44
8.215,-1.26,0.12,0.95,1.58
8.224,-1.42,-0.13,0.96,1.72
8.235,-1.49,-0.28,0.86,1.75
8.245,-1.35,-0.26,0.82,1.60
8.255,-1.02,-0.10,0.95,1.40
8.265,-0.72,0.01,0.97,1.20
8.275,-0.52,0.14,0.79,0.96
8.284,-0.36,0.36,0.47,0.69
8.295,-0.13,0.72,0.03,0.73
8.304,0.30,0.95,0.06,1.00
8.315,0.80,1.11,0.11,1.37
8.324,1.14,1.52,0.56,1.98
8.335,1.12,1.93,1.20,2.53
8.344,0.78,1.98,1.92,2.87
8.355,0.41,1.55,2.57,3.03
8.365,0.19,0.75,3.06,3.16
8.376,0.18,-0.06,3.46,3.47
8.386,0.38,-0.82,3.93,4.04
8.396,0.64,-1.57,4.26,4.58
8.406,1.04,-1.99,3.88,4.48
8.416,2.00,-1.82,2.69,3.81
8.426,3.23,-1.24,1.40,3.73
8.436,4.20,-0.70,0.82,4.34
8.446,4.56,0.27,0.70,4.62
8.456,3.89,2.10,0.08,4.42
8.466,2.15,3.44,-0.44,4.08
8.476,0.17,3.41,-1.00,3.55
8.486,-1.06,2.65,-1.77,3.36
8.496,-1.55,1.73,-2.49,3.40
8.506,-1.55,1.03,-3.02,3.54
8.516,-0.45,0.92,-3.12,3.28
8.526,0.38,0.62,-3.03,3.12
8.536,0.36,-0.37,-2.96,3.01
8.546,0.13,-1.43,-2.73,3.08
8.556,-0.23,-1.91,-3.05,3.60
8.566,-0.36,-1.44,-3.34,3.66
8.576,-0.33,-0.51,-3.26,3.32
8.586,-0.22,0.54,-3.04,3.09
8.596,-0.09,1.40,-2.73,3.07
8.606,-0.03,1.90,-2.51,3.15
8.616,-0.10,1.99,-2.45,3.16
8.626,-0.42,1.72,-2.32,2.92
8.636,-0.80,1.22,-2.16,2.60
8.646,-1.04,0.63,-1.91,2.26
8.656,-1.13,0.12,-1.61,1.97
8.666,-1.14,-0.30,-1.34,1.78
8.676,-1.04,-0.67,-1.16,1.69
8.686,-0.91,-1.01,-1.05,1.71
8.696,-0.74,-1.24,-1.01,1.77
8.706,-0.80,-1.33,-0.94,1.82
8.716,-1.11,-1.25,-0.81,1.85
8.726,-1.29,-1.07,-0.63,1.79
8.736,-1.40,-0.86,-0.48,1.71
8.746,-1.35,-0.48,-0.20,1.45
8.756,-1.27,-0.18,0.08,1.28
8.766,-1.34,-0.17,0.29,1.38
8.776,-1.51,-0.40,0.46,1.62
8.786,-1.69,-0.69,0.54,1.91
8.796,-1.67,-0.93,0.57,1.99
8.806,-1.43,-1.13,0.62,1.93
8.816,-1.10,-1.20,0.66,1.76
8.826,-0.83,-1.03,0.59,1.45
8.836,-0.76,-0.66,0.46,1.11
8.846,-0.83,-0.44,0.36,1.01
8.856,-0.85,-0.32,0.31,0.96
8.866,-0.85,-0.31,0.30,0.95
8.876,-0.83,-0.35,0.30,0.95
8.886,-0.84,-0.37,0.39,1.00
8.896,-0.77,-0.44,0.49,1.01
8.906,-0.61,-0.54,0.59,1.00
8.916,-0.35,-0.70,0.66,1.02
8.926,0.04,-0.79,0.71,1.06
8.936,0.24,-0.80,0.75,1.12
8.946,0.18,-0.89,0.60,1.09
8.956,0.08,-1.00,0.34,1.06
8.966,0.19,-1.14,0.18,1.17
8.976,0.51,-1.31,0.10,1.41
8.986,0.94,-1.40,0.03,1.69
8.996,1.08,-1.42,0.07,1.78
9.006,0.82,-1.55,0.32,1.78
9.016,0.60,-1.90,0.63,2.09
9.026,0.66,-2.24,0.96,2.52
9.036,0.86,-2.44,1.39,2.94
9.046,1.18,-2.47,1.77,3.26
9.056,1.70,-2.20,1.92,3.37
9.066,2.19,-1.82,1.77,3.35
9.076,2.37,-1.45,1.39,3.11
9.086,2.56,-1.17,1.33,3.11
9.096,2.81,-0.98,0.81,3.08
9.106,3.36,-0.43,-0.43,3.41
9.117,3.94,0.52,-1.23,4.17
9.126,3.77,1.28,-1.81,4.38
9.136,3.13,1.91,-2.27,4.31
9.146,2.47,2.62,-2.24,4.24
9.156,1.75,3.05,-2.73,4.45
9.166,0.78,3.31,-2.63,4.30
9.176,0.11,3.29,-1.97,3.84
9.187,-0.04,2.81,-1.52,3.19
9.197,0.12,1.92,-1.23,2.28
9.206,0.28,0.92,-0.85,1.28
9.216,0.36,0.08,-0.37,0.52
9.226,0.11,-0.59,0.07,0.61
9.236,-0.48,-1.12,0.29,1.25
9.247,-1.07,-1.27,0.27,1.68
9.256,-1.51,-0.90,0.08,1.76
9.267,-1.74,-0.24,-0.13,1.76
9.276,-1.87,0.45,-0.32,1.95
9.287,-2.07,0.96,-0.49,2.33
9.296,-2.15,1.20,-0.60,2.54
9.307,-2.12,1.19,-0.58,2.50
9.317,-2.07,0.98,-0.54,2.35
9.327,-1.98,0.66,-0.46,2.14
9.337,-1.73,0.33,-0.37,1.80
9.347,-1.57,0.14,-0.22,1.59
9.357,-1.46,0.01,-0.16,1.47
9.367,-1.33,-0.03,-0.09,1.33
9.376,-1.10,-0.03,-0.04,1.11
9.387,-0.81,0.07,0.00,0.81
9.397,-0.59,0.24,0.05,0.64
9.407,-0.60,0.46,0.12,0.76
9.417,-0.77,0.70,0.22,1.07
9.427,-1.08,0.89,0.31,1.44
9.437,-1.38,0.94,0.37,1.71
9.447,-1.66,0.87,0.45,1.93
9.457,-1.81,0.73,0.58,2.04
9.467,-1.86,0.50,0.68,2.05
9.477,-1.84,0.22,0.74,1.99
9.487,-1.79,0.03,0.79,1.96
9.497,-1.80,-0.11,0.86,2.00
9.507,-1.78,-0.25,1.00,2.06
9.517,-1.64,-0.39,1.05,1.99
9.527,-1.49,-0.55,1.07,1.92
9.537,-1.48,-0.72,1.08,1.96
9.547,-1.44,-0.81,1.04,1.95
9.557,-1.23,-0.71,1.02,1.75
9.567,-0.84,-0.51,0.86,1.31
9.577,-0.45,-0.17,0.80,0.93
9.587,-0.01,0.25,0.67,0.71
9.597,0.43,0.81,0.40,1.00
9.607,0.85,1.34,0.43,1.64
9.617,1.14,1.56,0.24,1.95
9.627,1.43,1.69,0.28,2.23
9.637,1.57,1.68,0.69,2.40
9.647,1.34,1.37,1.37,2.36
9.657,1.03,0.75,2.08,2.44
9.667,0.50,-0.03,2.76,2.80
9.677,-0.03,-0.83,3.26,3.36
9.687,-0.25,-1.43,3.58,3.86
9.697,-0.06,-1.73,3.69,4.07
9.707,0.57,-1.76,3.60,4.05
9.717,1.69,-1.46,2.66,3.48
9.727,3.21,-0.64,1.29,3.52
9.737,4.35,0.01,0.61,4.39
9.747,4.62,0.82,-0.25,4.70
9.757,4.42,2.00,-1.83,5.18
9.767,3.52,3.32,-3.41,5.92
9.777,1.73,4.39,-4.01,6.19
9.787,0.21,4.79,-4.35,6.48
9.797,-0.86,4.21,-4.93,6.54
9.807,-0.65,3.37,-4.94,6.02
9.817,-0.24,1.92,-3.61,4.10
9.827,0.12,0.12,-2.24,2.24
9.837,0.49,-1.25,-1.48,2.00
9.847,-0.09,-2.24,-1.48,2.69
9.857,-0.80,-2.42,-1.70,3.06
9.867,-1.01,-1.54,-1.82,2.59
9.877,-0.86,0.05,-1.70,1.90
9.887,-0.46,1.45,-1.56,2.18
9.897,0.18,2.13,-1.65,2.70
9.907,0.79,2.13,-1.75,2.87
9.917,1.04,1.69,-1.59,2.54
9.927,0.84,1.18,-1.18,1.87
9.937,0.24,0.67,-0.87,1.13
9.947,-0.44,0.30,-0.61,0.81
9.957,-1.16,-0.05,-0.51,1.27
9.967,-1.72,-0.38,-0.59,1.85
9.977,-2.11,-0.67,-0.68,2.31
9.987,-2.34,-0.89,-0.65,2.59
9.997,-2.23,-0.96,-0.58,2.50
10.007,-1.87,-0.89,-0.41,2.11
10.017,-1.54,-0.77,-0.34,1.75
10.027,-1.26,-0.59,-0.25,1.41
10.037,-1.00,-0.46,-0.17,1.11
10.047,-0.86,-0.50,-0.08,1.00
10.057,-0.96,-0.66,0.04,1.17
10.067,-1.20,-0.97,0.12,1.54
10.077,-1.35,-1.29,0.19,1.88
10.087,-1.42,-1.58,0.27,2.14
10.097,-1.43,-1.72,0.33,2.26
10.107,-1.39,-1.71,0.41,2.24
10.117,-1.28,-1.59,0.42,2.09
10.127,-1.23,-1.36,0.38,1.87
10.137,-1.25,-1.12,0.32,1.71
10.147,-1.23,-0.91,0.24,1.55
10.157,-1.20,-0.76,0.28,1.45
10.167,-1.12,-0.74,0.23,1.36
10.177,-1.01,-0.76,0.22,1.28
10.187,-0.92,-0.79,0.21,1.23
10.197,-0.85,-0.74,0.19,1.14
10.207,-0.66,-0.57,0.26,0.91
10.217,-0.40,-0.43,0.27,0.65
10.227,-0.16,-0.37,0.23,0.47
10.237,0.10,-0.38,0.18,0.43
10.247,0.30,-0.37,0.26,0.54
10.257,0.67,-0.42,0.48,0.92
10.267,1.06,-0.61,0.59,1.36
10.277,1.27,-0.86,0.53,1.62
10.287,1.21,-1.02,0.72,1.74
10.297,0.92,-1.29,0.88,1.81
10.307,0.66,-1.57,1.05,2.00
10.317,0.47,-1.81,1.35,2.30
10.327,0.29,-1.94,1.61,2.54
10.337,0.31,-1.91,1.75,2.61
10.347,0.86,-1.55,1.80,2.53
10.357,1.66,-1.03,1.68,2.57
10.367,2.19,-0.71,1.21,2.60
10.377,2.68,-0.34,1.00,2.88
10.387,3.11,-0.35,0.72,3.21
10.397,3.18,-0.34,-0.27,3.21
10.407,2.94,0.35,-1.17,3.19
10.417,2.35,1.08,-1.71,3.10
10.427,1.12,1.52,-2.21,2.91
10.437,0.08,1.77,-2.47,3.04
10.447,-0.30,1.83,-2.53,3.14
10.457,-0.31,2.06,-2.92,3.59
10.468,0.14,2.39,-2.47,3.44
10.477,0.88,2.37,-1.74,3.06
10.487,1.55,2.11,-1.25,2.90
10.497,1.96,1.84,-0.94,2.85
10.507,1.98,1.42,-0.62,2.51
10.517,1.55,0.80,-0.27,1.76
10.527,0.74,0.03,0.01,0.74
10.537,0.01,-0.61,0.13,0.62
10.548,-0.37,-0.82,0.13,0.91
10.557,-0.81,-0.48,0.09,0.95
10.567,-1.20,0.16,0.02,1.21
10.577,-1.44,0.63,-0.06,1.57
10.588,-1.70,0.77,-0.08,1.87
10.597,-2.03,0.62,-0.05,2.13
10.607,-2.29,0.36,-0.04,2.32
10.617,-2.36,0.15,-0.01,2.37
10.627,-2.31,-0.02,0.09,2.32
10.637,-1.96,-0.15,0.13,1.97
10.648,-1.63,-0.31,0.12,1.66
10.657,-1.32,-0.32,0.11,1.36
10.668,-1.03,-0.21,-0.00,1.05
10.678,-0.79,-0.02,-0.08,0.80
10.687,-0.57,0.25,0.01,0.63
10.697,-0.49,0.57,0.10,0.76
10.708,-0.66,0.85,0.12,1.08
10.718,-1.01,1.06,0.14,1.48
10.728,-1.39,1.14,0.17,1.81
10.737,-1.78,1.07,0.32,2.10
10.748,-2.00,0.82,0.33,2.19
10.757,-1.98,0.49,0.35,2.07
10.768,-1.81,0.19,0.39,1.86
10.777,-1.81,-0.12,0.54,1.89
10.788,-1.67,-0.42,0.74,1.87
10.798,-1.42,-0.74,0.86,1.82
10.808,-1.25,-1.06,0.90,1.87
10.818,-1.21,-1.27,0.87,1.96
10.828,-1.31,-1.20,0.74,1.93
10.838,-1.29,-0.76,0.75,1.67
10.848,-1.01,-0.09,0.79,1.29
10.858,-0.58,0.43,0.89,1.15
10.868,-0.17,0.64,0.96,1.17
10.878,0.16,0.64,0.74,0.99
10.888,0.42,0.58,0.37,0.81
10.898,0.60,0.61,0.32,0.91
10.908,0.82,0.56,0.34,1.05
10.918,1.23,0.63,0.81,1.60
10.928,1.50,0.70,1.44,2.20
10.938,1.35,0.52,2.07,2.53
10.948,0.93,0.12,2.58,2.74
10.958,0.48,-0.37,3.04,3.10
10.968,0.12,-0.80,3.35,3.45
10.978,0.26,-1.17,3.14,3.36
10.988,1.36,-1.16,2.38,2.98
10.998,2.74,-0.62,1.19,3.05
11.008,3.60,0.05,0.44,3.63
11.018,4.13,1.22,-0.18,4.31
11.028,4.43,2.69,-1.27,5.34
11.038,3.91,3.55,-2.32,5.77
11.048,2.56,3.88,-2.72,5.39
11.058,0.86,3.66,-3.38,5.05
11.068,-0.94,2.91,-3.83,4.90
11.078,-1.30,2.40,-3.41,4.36
11.088,-0.76,1.35,-3.23,3.59
11.098,-0.29,-0.31,-2.77,2.80
11.108,0.09,-1.41,-2.67,3.02
11.118,0.19,-1.46,-2.54,2.94
11.128,-0.09,-0.48,-2.46,2.51
11.138,0.03,1.09,-2.50,2.72
11.148,-0.32,2.00,-2.42,3.15
11.158,-0.64,2.73,-2.11,3.51
11.168,-0.27,3.30,-1.95,3.84
11.178,0.23,3.39,-1.91,3.90
11.188,0.50,2.72,-1.83,3.32
11.198,0.41,1.76,-1.52,2.36
11.208,0.10,0.84,-1.08,1.37
11.218,-0.41,-0.01,-0.75,0.85
11.228,-0.92,-0.70,-0.47,1.24
11.238,-1.37,-1.27,-0.34,1.91
11.248,-1.82,-1.69,-0.31,2.50
11.258,-2.14,-1.83,-0.23,2.83
11.268,-2.27,-1.68,-0.21,2.84
11.278,-2.09,-1.31,-0.18,2.47
11.288,-1.79,-0.87,-0.18,2.00
11.298,-1.48,-0.45,-0.21,1.56
11.308,-1.06,-0.20,-0.24,1.10
11.318,-0.64,-0.24,-0.29,0.75
11.328,-0.43,-0.49,-0.23,0.69
11.338,-0.39,-0.83,-0.20,0.94
11.348,-0.47,-1.17,-0.20,1.28
11.358,-0.67,-1.43,-0.16,1.58
11.368,-0.95,-1.55,-0.07,1.82
11.378,-1.19,-1.57,-0.03,1.97
11.388,-1.19,-1.45,-0.01,1.87
11.398,-1.05,-1.23,-0.04,1.62
11.408,-0.81,-0.98,-0.01,1.27
11.418,-0.65,-0.79,0.10,1.03
11.428,-0.59,-0.71,0.15,0.93
11.438,-0.49,-0.68,0.19,0.86
11.448,-0.41,-0.69,0.21,0.83
11.458,-0.39,-0.71,0.25,0.85
11.468,-0.44,-0.81,0.34,0.98
11.478,-0.42,-0.95,0.38,1.10
11.488,-0.29,-1.04,0.40,1.15
11.498,-0.26,-1.11,0.47,1.23
11.508,-0.17,-1.16,0.60,1.32
11.518,-0.01,-1.23,0.76,1.44
11.528,0.18,-1.36,0.85,1.61
11.538,0.25,-1.44,0.78,1.66
11.548,0.17,-1.38,0.66,1.54
11.558,0.08,-1.20,0.57,1.33
11.568,0.15,-0.98,0.54,1.13
11.578,0.46,-0.80,0.60,1.10
11.588,0.79,-0.76,0.73,1.31
11.598,0.99,-0.87,1.02,1.67
11.608,1.02,-1.04,1.31,1.96
11.618,0.82,-1.19,1.58,2.14
11.628,0.42,-1.39,1.71,2.25
11.638,0.24,-1.43,1.83,2.34
11.648,0.36,-1.11,1.84,2.18
11.658,0.62,-0.79,1.59,1.88
11.668,1.19,-0.61,1.01,1.68
11.678,1.84,-0.46,0.58,1.99
11.688,2.14,-0.46,-0.05,2.19
11.698,1.85,-0.26,-0.99,2.11
11.708,1.38,0.14,-1.76,2.24
11.718,1.03,0.77,-1.98,2.36
11.728,0.43,1.05,-1.92,2.23
11.738,0.26,0.89,-2.22,2.40
11.748,0.78,0.84,-2.20,2.48
11.758,1.14,0.85,-2.29,2.69
11.768,1.34,0.98,-1.79,2.44
11.778,1.78,1.18,-1.18,2.45
11.788,2.14,1.51,-0.90,2.77
11.798,2.20,1.72,-0.73,2.89
11.808,1.74,1.45,-0.47,2.31
11.818,0.93,0.64,-0.20,1.15
11.828,0.19,-0.18,-0.07,0.27
11.838,-0.34,-0.64,-0.01,0.72
11.848,-0.69,-0.50,-0.04,0.86
11.858,-0.96,-0.01,-0.09,0.97
11.868,-1.23,0.44,-0.14,1.31
11.879,-1.46,0.71,-0.18,1.64
11.888,-1.64,0.69,-0.14,1.79
11.898,-1.80,0.45,-0.11,1.86
11.908,-1.88,0.07,-0.12,1.89
11.918,-1.85,-0.28,-0.06,1.87
11.928,-1.75,-0.59,0.03,1.85
11.938,-1.54,-0.79,0.07,1.74
11.948,-1.28,-0.80,0.07,1.51
11.958,-1.05,-0.62,-0.04,1.22
11.968,-0.86,-0.31,-0.11,0.93
11.979,-0.71,0.06,-0.19,0.74
11.989,-0.52,0.37,-0.17,0.66
11.999,-0.54,0.67,-0.14,0.88
12.007,-0.77,0.89,-0.10,1.18
12.017,-1.15,1.01,-0.00,1.53
12.027,-1.63,0.97,0.14,1.90
12.037,-2.04,0.83,0.24,2.22
12.047,-2.26,0.72,0.27,2.39
12.057,-2.33,0.59,0.33,2.43
12.067,-2.22,0.46,0.39,2.30
12.077,-1.94,0.25,0.52,2.03
12.087,-1.67,-0.05,0.62,1.78
12.097,-1.43,-0.40,0.75,1.66
12.107,-1.25,-0.69,0.85,1.66
12.117,-1.13,-0.90,0.87,1.68
12.127,-0.95,-0.96,0.93,1.64
12.137,-0.40,-0.58,0.85,1.11
12.147,0.17,0.40,0.30,0.53
12.157,0.44,1.30,0.52,1.47
12.167,0.65,1.50,0.62,1.75
12.177,0.59,1.46,0.47,1.64
12.187,0.47,1.14,0.65,1.39
12.197,0.56,0.60,0.60,1.02
12.207,1.01,0.45,0.96,1.46
12.217,1.47,0.29,1.51,2.13
12.227,1.59,0.09,1.93,2.50
12.237,1.34,-0.07,2.31,2.68
12.248,0.98,-0.37,2.57,2.78
12.257,0.99,-0.61,2.70,2.94
12.268,1.89,-0.53,1.96,2.78
12.277,3.22,-0.17,1.09,3.41
12.287,4.05,0.07,0.95,4.16
12.297,4.67,0.57,0.59,4.75
12.308,4.84,1.29,-0.92,5.09
12.317,3.70,1.80,-1.61,4.42
12.328,1.79,2.17,-2.22,3.58
12.337,0.24,2.71,-2.41,3.63
12.347,-1.27,2.67,-2.73,4.03
12.357,-2.33,2.33,-3.03,4.47
12.370,-2.53,1.86,-2.81,4.21
12.380,-2.08,0.84,-2.41,3.29
12.390,-1.11,-0.40,-2.26,2.55
12.400,-0.27,-1.19,-2.49,2.78
12.410,0.37,-1.26,-2.58,2.89
12.420,0.61,-0.76,-2.52,2.70
12.430,1.49,0.32,-2.39,2.84
12.440,1.01,1.16,-2.35,2.81
12.450,-0.05,1.83,-2.03,2.73
12.460,-0.70,2.45,-1.80,3.12
12.470,-0.46,2.40,-1.62,2.94
12.480,-0.14,1.79,-1.44,2.30
12.490,-0.31,1.12,-1.12,1.61
12.500,-0.82,0.55,-0.71,1.22
12.510,-1.24,0.09,-0.51,1.35
12.520,-1.41,-0.33,-0.51,1.53
12.530,-1.57,-0.75,-0.60,1.84
12.540,-1.80,-1.19,-0.60,2.24
12.550,-1.93,-1.51,-0.54,2.51
12.560,-1.70,-1.55,-0.51,2.36
12.570,-1.37,-1.39,-0.43,2.00
12.580,-1.21,-1.15,-0.32,1.70
12.590,-1.11,-0.93,-0.20,1.46
12.600,-0.92,-0.80,-0.14,1.23
12.610,-0.79,-0.83,-0.10,1.15
12.620,-0.78,-1.02,-0.04,1.29
12.630,-0.86,-1.18,0.04,1.46
12.640,-1.03,-1.26,0.20,1.64
12.650,-1.23,-1.32,0.38,1.85
12.660,-1.41,-1.38,0.45,2.02
12.670,-1.41,-1.37,0.44,2.01
12.680,-1.27,-1.34,0.41,1.89
12.690,-1.07,-1.23,0.43,1.69
12.700,-0.90,-1.08,0.36,1.45
12.710,-0.83,-0.86,0.32,1.24
12.720,-0.80,-0.65,0.31,1.07
12.730,-0.75,-0.48,0.38,0.97
12.740,-0.64,-0.39,0.41,0.85
12.750,-0.50,-0.36,0.49,0.79
12.760,-0.46,-0.48,0.56,0.87
12.770,-0.55,-0.72,0.50,1.03
12.780,-0.66,-1.03,0.34,1.27
12.790,-0.73,-1.27,0.32,1.50
12.800,-0.49,-1.43,0.25,1.53
12.810,-0.07,-1.45,0.20,1.46
12.820,0.19,-1.40,0.28,1.44
12.830,0.40,-1.47,0.37,1.57
12.840,0.68,-1.56,0.52,1.78
12.850,1.16,-1.56,0.80,2.10
12.860,1.61,-1.45,1.12,2.44
12.870,1.82,-1.29,1.45,2.66
12.880,1.79,-1.20,1.65,2.71
12.890,1.88,-1.01,1.68,2.72
12.900,1.98,-0.87,1.46,2.61
12.910,2.11,-1.03,1.11,2.59
12.920,2.54,-1.21,0.87,2.94
12.930,3.12,-1.37,0.57,3.45
12.940,3.06,-1.02,0.25,3.23
12.950,2.50,-0.32,-0.16,2.53
12.960,2.19,0.43,-1.15,2.51
12.970,1.64,1.08,-1.72,2.61
12.980,1.01,1.69,-2.14,2.91
12.990,1.01,2.45,-2.33,3.53
13.000,0.94,3.10,-2.78,4.27
13.010,0.49,3.73,-2.61,4.57
13.020,0.12,3.99,-1.81,4.38
13.030,0.14,3.60,-1.20,3.80
13.040,0.43,2.46,-0.83,2.63
13.051,0.84,0.92,-0.40,1.31
13.060,1.12,-0.55,0.04,1.25
13.071,0.99,-1.62,0.40,1.94
13.081,0.82,-2.01,0.56,2.24
13.090,0.51,-1.71,0.36,1.82
13.100,0.15,-0.88,0.08,0.89
13.110,-0.12,0.03,-0.16,0.20
13.121,-0.32,0.74,-0.34,0.87
13.130,-0.47,1.20,-0.54,1.39
13.140,-0.73,1.47,-0.65,1.76
13.150,-1.10,1.49,-0.61,1.95
13.160,-1.48,1.27,-0.51,2.01
13.171,-1.90,0.83,-0.38,2.11
13.180,-2.30,0.34,-0.26,2.34
13.191,-2.59,-0.05,-0.12,2.60
13.200,-2.66,-0.29,-0.13,2.68
13.211,-2.54,-0.30,-0.21,2.56
13.220,-2.25,-0.13,-0.02,2.25
13.230,-1.94,0.05,-0.03,1.94
13.241,-1.53,0.29,-0.06,1.55
13.251,-1.17,0.56,-0.12,1.30
13.261,-1.01,0.83,-0.11,1.31
13.271,-0.99,1.06,-0.07,1.45
13.281,-1.13,1.14,-0.02,1.61
13.291,-1.49,1.08,0.01,1.83
13.301,-1.79,0.83,0.12,1.97
13.311,-1.94,0.42,0.27,2.01
13.321,-2.07,-0.01,0.41,2.12
13.331,-2.14,-0.23,0.51,2.21
13.341,-1.91,-0.36,0.66,2.05
13.351,-1.48,-0.53,0.78,1.75
13.361,-1.03,-0.74,0.69,1.45
13.371,-0.66,-0.78,0.61,1.19
13.381,-0.52,-0.63,0.51,0.97
13.391,-0.45,-0.25,0.40,0.65
13.401,-0.27,0.35,0.45,0.63
13.411,-0.08,0.78,0.46,0.91
13.421,0.09,1.14,0.41,1.21
13.431,0.31,1.39,0.67,1.57
13.441,0.48,1.26,0.62,1.48
13.451,0.76,1.07,0.67,1.48
13.461,1.14,0.72,0.88,1.61
13.471,1.31,0.44,1.16,1.80
13.481,1.11,0.34,1.46,1.87
13.491,0.67,0.33,1.81,1.96
13.501,0.23,0.26,2.22,2.24
13.511,-0.10,0.07,2.64,2.64
13.521,-0.35,-0.28,3.07,3.10
13.531,-0.44,-0.60,3.35,3.43
13.541,-0.08,-0.77,3.37,3.46
13.551,0.92,-0.70,2.76,3.00
13.561,2.35,-0.16,1.66,2.88
13.571,3.54,0.44,0.88,3.68
13.581,4.15,1.07,0.03,4.29
13.591,3.84,2.13,-1.13,4.54
13.601,2.56,2.96,-2.24,4.51
13.611,0.79,3.32,-2.97,4.52
13.621,-0.22,3.36,-3.19,4.63
13.631,-1.08,2.57,-3.40,4.39
13.641,-1.16,1.79,-3.14,3.79
13.651,0.29,0.93,-2.79,2.96
13.661,1.11,-0.19,-2.45,2.69
13.671,1.46,-1.22,-1.74,2.58
13.681,1.37,-1.71,-1.59,2.71
13.691,0.96,-1.49,-1.76,2.50
13.701,0.36,-0.69,-1.91,2.06
13.711,-0.22,0.23,-1.86,1.88
13.721,-0.45,1.13,-1.68,2.07
13.731,-0.44,1.91,-1.67,2.57
13.741,-0.41,2.37,-1.70,2.95
13.751,-0.50,2.46,-1.62,2.99
13.761,-0.61,2.07,-1.57,2.67
13.771,-0.74,1.47,-1.42,2.17
13.781,-0.89,0.81,-1.23,1.72
13.791,-1.08,0.21,-1.15,1.59
13.801,-1.24,-0.30,-1.10,1.69
13.811,-1.46,-0.75,-1.03,1.94
13.821,-1.53,-1.07,-0.98,2.11
13.831,-1.59,-1.15,-0.96,2.19
13.841,-1.72,-0.99,-0.87,2.17
13.851,-1.73,-0.69,-0.73,2.00
13.861,-1.65,-0.42,-0.59,1.81
13.871,-1.36,-0.29,-0.45,1.47
13.881,-1.02,-0.42,-0.33,1.15
13.891,-0.70,-0.71,-0.21,1.02
13.901,-0.65,-1.02,-0.15,1.22
13.911,-0.71,-1.28,-0.05,1.47
13.921,-0.85,-1.48,0.09,1.71
13.931,-1.05,-1.59,0.24,1.92
13.941,-1.14,-1.58,0.37,1.98
13.951,-1.15,-1.48,0.47,1.93
13.961,-1.12,-1.39,0.49,1.86
13.971,-0.97,-1.28,0.52,1.69
13.981,-0.79,-1.19,0.53,1.52
13.991,-0.69,-1.05,0.45,1.33
14.001,-0.61,-0.86,0.36,1.11
14.011,-0.61,-0.62,0.33,0.93
14.021,-0.67,-0.45,0.27,0.85
14.031,-0.67,-0.40,0.24,0.82
14.041,-0.61,-0.45,0.24,0.80
14.051,-0.52,-0.57,0.25,0.81
14.061,-0.45,-0.73,0.14,0.87
14.071,-0.35,-0.83,0.15,0.91
14.081,-0.22,-0.94,0.24,0.99
14.091,0.01,-1.03,0.19,1.04
14.101,0.30,-1.04,0.18,1.09
14.111,0.51,-1.12,0.16,1.24
14.121,0.63,-1.13,0.20,1.31
14.131,0.69,-1.01,0.34,1.27
14.141,0.84,-0.85,0.64,1.35
14.151,1.01,-0.80,0.98,1.62
14.161,1.08,-0.85,1.34,1.92
14.171,1.08,-0.99,1.67,2.22
14.181,1.24,-1.09,1.78,2.43
14.191,1.57,-1.15,1.67,2.57
14.201,2.09,-1.36,1.33,2.83
14.211,2.88,-1.43,1.07,3.39
14.221,3.47,-1.43,0.91,3.86
14.231,3.05,-1.22,0.99,3.43
14.241,2.24,-0.67,0.54,2.40
14.251,1.90,0.03,-0.11,1.90
14.261,1.36,0.50,-0.75,1.63
14.271,0.42,0.60,-1.60,1.76
14.281,0.08,0.79,-2.28,2.41
14.291,0.35,1.33,-2.35,2.72
14.301,0.30,2.02,-2.43,3.18
14.311,-0.05,2.60,-1.94,3.24
14.321,-0.06,2.59,-1.20,2.85
14.331,0.45,1.97,-0.72,2.14
14.341,1.10,0.99,-0.40,1.53
14.351,1.51,-0.01,-0.14,1.51
14.361,1.40,-0.78,0.13,1.61
14.371,0.92,-1.27,0.24,1.59
14.381,0.32,-1.26,0.13,1.31
14.391,0.09,-0.74,-0.01,0.75
14.401,0.03,-0.09,-0.26,0.27
14.411,-0.07,0.50,-0.51,0.72
14.421,-0.27,0.89,-0.68,1.15
14.431,-0.62,1.11,-0.72,1.46
14.441,-1.14,1.18,-0.65,1.77
14.451,-1.74,1.07,-0.52,2.10
14.461,-2.20,0.80,-0.45,2.38
14.471,-2.42,0.44,-0.41,2.49
14.481,-2.53,0.09,-0.21,2.54
14.491,-2.58,-0.05,-0.12,2.59
14.501,-2.47,-0.08,-0.13,2.47
14.512,-2.19,0.03,-0.14,2.19
14.521,-1.87,0.22,-0.13,1.88
14.532,-1.56,0.98,-0.16,1.85
14.541,-1.31,1.81,0.07,2.23
14.552,-1.49,-0.07,0.02,1.49
14.561,-1.17,0.36,0.15,1.23
14.571,-0.91,1.26,0.55,1.65
14.582,-1.17,0.70,0.40,1.42
14.591,-1.57,0.33,0.52,1.69
14.601,-1.80,0.17,0.58,1.90
14.611,-2.10,0.04,0.70,2.21
14.622,-2.32,0.01,0.82,2.46
14.631,-2.28,-0.05,0.71,2.39
14.642,-1.86,0.04,0.61,1.96
14.652,-1.43,-0.05,0.61,1.56
14.661,-1.22,-0.28,0.67,1.42
14.672,-1.06,-0.46,0.68,1.33
14.682,-0.76,-0.32,0.67,1.06
14.691,-0.52,0.11,0.76,0.93
14.701,-0.33,0.43,0.83,1.00
14.712,0.15,0.54,0.83,1.00
14.722,0.65,0.62,0.77,1.18
14.732,0.84,0.71,0.62,1.26
14.742,0.72,0.86,0.69,1.32
14.752,0.67,0.97,0.91,1.49
14.762,0.73,0.95,1.09,1.62
14.772,0.80,0.71,1.49,1.83
14.782,0.86,0.36,1.98,2.19
14.792,0.77,-0.04,2.44,2.56
14.802,0.59,-0.46,2.97,3.06
14.812,0.49,-0.80,3.42,3.55
14.822,0.59,-0.97,3.53,3.71
14.832,1.10,-0.91,3.12,3.43
14.842,2.26,-0.43,2.13,3.14
14.852,3.60,0.34,1.26,3.83
14.862,4.47,0.94,0.89,4.66
14.872,4.98,1.81,0.16,5.31
14.882,4.87,2.99,-0.91,5.79
14.892,3.66,3.40,-2.07,5.41
14.902,1.87,3.16,-2.60,4.50
14.912,0.32,2.62,-2.88,3.90
14.922,-0.84,1.94,-3.47,4.06
14.932,-0.71,1.77,-3.36,3.87
14.942,-0.26,1.29,-2.84,3.13
14.952,-0.52,0.14,-2.22,2.29
14.962,-0.55,-0.67,-1.91,2.09
14.972,-0.58,-0.96,-2.03,2.32
14.982,-0.58,-0.85,-2.27,2.49
14.992,-0.78,-0.24,-2.49,2.62
15.004,-1.04,0.62,-2.50,2.78
15.012,-1.12,1.27,-2.36,2.90
15.022,-0.83,1.58,-2.15,2.80
15.032,-0.32,1.57,-2.07,2.62
15.042,0.00,1.29,-1.95,2.34
15.052,0.18,0.95,-1.71,1.97
15.062,0.09,0.72,-1.36,1.54
15.072,-0.22,0.45,-1.11,1.22
15.082,-0.60,0.16,-0.95,1.14
15.092,-1.00,-0.10,-0.89,1.34
15.102,-1.35,-0.29,-0.89,1.65
15.112,-1.55,-0.39,-0.92,1.84
15.122,-1.73,-0.49,-0.96,2.04
15.132,-1.80,-0.57,-0.95,2.11
15.142,-1.59,-0.62,-0.91,1.93
15.152,-1.25,-0.63,-0.84,1.63
15.162,-0.94,-0.62,-0.84,1.41
15.172,-0.74,-0.57,-0.74,1.19
15.182,-0.70,-0.56,-0.68,1.13
15.192,-0.71,-0.65,-0.58,1.13
15.202,-0.77,-0.87,-0.53,1.27
15.212,-0.88,-1.06,-0.42,1.44
15.222,-1.00,-1.30,-0.25,1.66
15.232,-1.12,-1.51,-0.10,1.88
15.242,-1.18,-1.65,0.01,2.03
15.252,-1.14,-1.70,0.14,2.05
15.262,-0.99,-1.59,0.23,1.88
15.272,-0.83,-1.37,0.32,1.64
15.282,-0.78,-1.18,0.32,1.45
15.292,-0.77,-1.05,0.38,1.36
15.302,-0.77,-0.96,0.42,1.30
15.312,-0.80,-0.86,0.50,1.28
15.322,-0.87,-0.77,0.56,1.29
15.332,-0.86,-0.73,0.59,1.27
15.342,-0.72,-0.66,0.58,1.14
15.352,-0.54,-0.58,0.59,0.99
15.362,-0.35,-0.58,0.66,0.94
15.372,-0.34,-0.69,0.69,1.03
15.382,-0.26,-0.89,0.68,1.15
15.392,-0.09,-1.16,0.72,1.37
15.402,0.15,-1.44,0.78,1.65
15.412,0.41,-1.63,0.63,1.79
15.422,0.51,-1.54,0.73,1.78
15.432,0.41,-1.58,0.91,1.87
15.442,0.41,-1.77,1.04,2.09
15.452,0.54,-1.93,1.18,2.33
15.462,0.75,-2.08,1.34,2.58
15.472,1.07,-2.01,1.55,2.75
15.482,1.37,-1.78,1.60,2.76
15.492,1.53,-1.55,1.36,2.57
15.502,1.64,-1.56,0.87,2.42
15.512,2.03,-1.31,0.51,2.47
15.522,2.57,-0.69,0.31,2.68
15.532,2.71,0.28,-0.12,2.73
15.542,2.60,1.16,-0.67,2.92
15.552,2.68,1.83,-1.35,3.51
15.562,2.17,2.21,-1.98,3.68
15.572,1.32,2.33,-2.38,3.58
15.582,1.22,2.25,-2.28,3.43
15.592,1.53,2.08,-2.34,3.48
15.602,1.40,1.95,-2.48,3.46
15.612,1.14,1.79,-1.68,2.71
15.622,1.03,1.45,-0.82,1.95
15.632,0.99,0.90,-0.39,1.40
15.642,0.97,0.03,-0.20,0.99
15.652,0.90,-0.89,0.13,1.27
15.662,0.56,-1.65,0.43,1.80
15.672,0.18,-1.81,0.42,1.87
15.682,0.02,-1.10,0.19,1.12
15.692,-0.13,-0.07,-0.06,0.16
15.702,-0.34,0.75,-0.34,0.89
15.712,-0.62,1.29,-0.56,1.53
15.722,-0.94,1.46,-0.63,1.85
15.732,-1.37,1.32,-0.64,2.01
15.742,-1.77,1.00,-0.57,2.11
15.752,-2.10,0.55,-0.48,2.22
15.762,-2.31,0.08,-0.39,2.34
15.772,-2.41,-0.36,-0.26,2.45
15.782,-2.48,-0.65,-0.18,2.58
15.792,-2.53,-0.78,-0.15,2.65
15.802,-2.41,-0.67,-0.02,2.51
15.812,-2.15,-0.46,0.03,2.20
15.822,-1.73,-0.21,0.15,1.75
15.832,-1.26,0.15,0.38,1.33
15.842,-0.93,0.44,0.37,1.09
15.852,-0.83,0.91,0.37,1.28
15.862,-0.90,0.68,0.42,1.20
15.872,-1.36,0.25,0.44,1.45
15.882,-1.31,0.35,0.68,1.51
15.892,-1.45,0.00,0.71,1.61
15.902,-1.81,-0.40,0.80,2.02
15.912,-2.05,-0.50,0.89,2.29
15.922,-1.94,-0.53,0.91,2.21
15.932,-1.70,-0.67,0.79,1.99
15.942,-1.63,-0.78,0.66,1.93
15.952,-1.73,-0.90,0.51,2.02
15.962,-1.79,-0.91,0.46,2.06
15.972,-1.46,-0.69,0.52,1.70
15.982,-0.66,-0.10,0.47,0.82
15.992,0.18,0.74,0.21,0.79
16.003,0.87,1.59,0.23,1.83
16.010,1.27,1.99,0.21,2.37
16.020,1.44,2.00,0.37,2.49
16.030,1.34,1.49,0.72,2.12
16.040,1.18,0.64,0.81,1.57
16.050,1.22,-0.03,1.22,1.73
16.060,1.18,-0.51,1.84,2.24
16.070,1.06,-0.78,2.37,2.70
16.080,0.93,-0.88,2.74,3.03
16.090,0.85,-0.93,3.06,3.31
16.100,1.14,-1.07,2.99,3.38
16.110,2.41,-0.71,1.97,3.19
16.120,3.73,-0.24,0.93,3.86
16.130,4.36,0.01,1.13,4.50
16.140,4.72,0.77,0.66,4.83
16.150,4.76,1.73,-0.80,5.13
16.160,3.65,2.29,-1.93,4.72
16.170,2.03,2.86,-2.69,4.42
16.180,0.54,3.33,-2.83,4.41
16.190,-0.72,3.57,-3.18,4.84
16.200,-1.48,3.62,-3.13,5.01
16.210,-2.17,2.68,-2.73,4.40
16.220,-2.05,1.03,-2.14,3.14
16.230,-1.45,-0.58,-1.96,2.50
16.240,-0.86,-1.62,-1.97,2.69
16.250,-0.34,-1.76,-2.14,2.79
16.260,-0.01,-1.10,-2.33,2.58
16.270,0.08,-0.06,-2.28,2.28
16.280,0.08,0.87,-2.06,2.24
16.290,-0.10,1.64,-2.00,2.59
16.300,0.41,2.40,-2.06,3.19
16.310,0.19,1.96,-2.09,2.87
16.320,-0.65,1.42,-1.60,2.23
16.330,-0.70,0.95,-1.10,1.62
16.340,-0.78,0.58,-0.95,1.36
16.350,-1.04,0.21,-0.80,1.33
16.360,-1.65,-0.20,-0.76,1.83
16.370,-2.00,-0.55,-0.72,2.20
16.380,-2.04,-0.82,-0.76,2.33
16.390,-1.89,-0.95,-0.74,2.24
16.400,-1.68,-1.04,-0.68,2.09
16.410,-1.31,-1.05,-0.60,1.79
16.420,-1.00,-0.94,-0.49,1.46
16.430,-0.80,-0.79,-0.41,1.20
16.440,-0.67,-0.73,-0.39,1.06
16.450,-0.67,-0.78,-0.34,1.08
16.460,-0.81,-0.99,-0.27,1.31
16.470,-1.02,-1.28,-0.19,1.65
16.480,-1.16,-1.53,-0.03,1.92
16.490,-1.24,-1.68,0.06,2.09
16.500,-1.27,-1.72,0.13,2.14
16.510,-1.15,-1.62,0.14,1.99
16.520,-0.98,-1.40,0.14,1.72
16.530,-0.88,-1.11,0.18,1.43
16.540,-0.86,-0.86,0.23,1.24
16.550,-0.80,-0.72,0.30,1.12
16.560,-0.82,-0.65,0.35,1.11
16.570,-0.89,-0.60,0.46,1.16
16.580,-0.90,-0.61,0.56,1.22
16.590,-0.88,-0.61,0.64,1.24
16.600,-0.73,-0.64,0.71,1.20
16.610,-0.54,-0.74,0.74,1.17
16.621,-0.27,-0.96,0.72,1.23
16.630,-0.09,-1.16,0.62,1.32
16.640,0.09,-1.21,0.49,1.31
16.650,0.25,-1.17,0.28,1.23
16.660,0.40,-1.08,0.11,1.16
16.671,0.45,-1.04,0.06,1.14
16.681,0.41,-1.27,0.02,1.34
16.690,0.59,-1.63,0.12,1.74
16.700,1.02,-1.90,0.44,2.20
16.710,1.40,-1.94,0.99,2.59
16.720,1.57,-1.95,1.52,2.93
16.731,1.76,-1.92,1.89,3.22
16.741,2.16,-1.54,1.94,3.29
16.751,2.48,-1.14,1.83,3.28
16.761,2.54,-0.94,1.58,3.14
16.771,2.88,-1.11,1.24,3.32
16.781,3.07,-1.19,0.68,3.36
16.791,2.62,-0.87,-0.09,2.76
16.800,2.32,-0.22,-0.62,2.42
16.811,1.88,0.44,-1.34,2.35
16.820,0.91,1.02,-1.97,2.40
16.831,0.24,1.79,-2.21,2.85
16.841,0.28,2.51,-2.32,3.43
16.851,0.22,3.00,-3.00,4.25
16.861,0.11,3.23,-2.46,4.06
16.871,0.35,2.98,-1.60,3.40
16.881,0.90,2.43,-1.09,2.82
16.891,1.34,1.53,-0.81,2.19
16.901,1.53,0.53,-0.56,1.71
16.911,1.52,-0.39,-0.15,1.57
16.921,1.14,-1.05,0.20,1.57
16.931,0.54,-1.20,0.29,1.35
16.941,0.10,-0.76,0.09,0.77
16.951,-0.18,-0.00,-0.16,0.24
16.961,-0.53,0.67,-0.42,0.95
16.971,-0.96,1.15,-0.60,1.62
16.981,-1.38,1.27,-0.61,1.97
16.991,-1.85,1.19,-0.52,2.26
17.001,-2.21,0.89,-0.34,2.41
17.011,-2.29,0.52,-0.21,2.35
17.021,-2.23,0.17,-0.05,2.24
17.031,-2.08,-0.04,0.07,2.09
17.041,-1.78,-0.14,0.05,1.79
17.051,-1.49,-0.17,-0.08,1.50
17.061,-1.18,-0.04,-0.22,1.20
17.071,-0.94,0.16,-0.30,1.00
17.081,-0.80,0.34,-0.31,0.92
17.091,-0.76,0.56,-0.28,0.98
17.101,-0.92,0.75,-0.10,1.19
17.111,-1.20,0.90,0.05,1.50
17.121,-1.42,0.97,0.06,1.72
17.131,-1.65,0.93,0.05,1.89
17.141,-1.89,0.78,0.03,2.05
17.151,-1.99,0.65,0.04,2.10
17.161,-1.90,0.56,0.17,1.98
17.171,-1.74,0.50,0.34,1.84
17.181,-1.60,0.46,0.53,1.74
17.191,-1.43,0.30,0.70,1.62
17.201,-1.25,0.05,0.86,1.51
17.211,-1.23,-0.21,0.91,1.55
17.221,-1.36,-0.40,0.91,1.68
17.231,-1.58,-0.46,0.88,1.87
17.241,-1.62,-0.40,0.88,1.89
17.251,-1.34,-0.19,0.81,1.58
17.261,-0.81,0.11,0.87,1.19
17.271,-0.34,0.27,0.91,1.01
17.281,0.10,0.47,0.65,0.81
17.291,0.47,0.83,0.31,1.00
17.301,0.70,1.02,0.39,1.29
17.311,0.84,1.00,0.48,1.39
17.321,1.15,1.07,0.84,1.78
17.331,1.20,0.96,1.37,2.06
17.341,1.06,0.55,1.92,2.26
17.351,0.84,0.07,2.41,2.55
17.361,0.57,-0.38,2.80,2.88
17.371,0.39,-0.77,3.11,3.23
17.381,0.33,-1.28,3.29,3.55
17.391,1.06,-1.54,2.71,3.29
17.401,2.63,-0.98,1.65,3.25
17.411,3.83,-0.31,1.33,4.06
17.421,4.60,0.60,0.98,4.74
17.431,4.72,1.81,-0.11,5.05
17.441,3.82,2.46,-1.34,4.74
17.451,2.09,2.49,-2.42,4.05
17.461,0.97,2.54,-2.54,3.72
17.471,0.11,2.35,-2.77,3.63
17.481,-0.51,2.27,-3.02,3.81
17.491,-0.73,2.09,-2.85,3.61
17.501,-1.11,1.02,-2.48,2.90
17.511,-1.34,-0.27,-2.15,2.55
17.521,-0.55,-0.91,-2.23,2.47
17.531,-0.53,-1.22,-2.39,2.74
17.541,-0.79,-1.06,-2.49,2.82
17.551,-0.66,-0.09,-2.40,2.49
17.561,-0.26,0.86,-2.24,2.41
17.571,0.21,1.50,-2.09,2.58
17.581,0.54,1.93,-2.03,2.86
17.591,0.61,1.99,-1.95,2.85
17.601,0.31,1.68,-1.72,2.42
17.611,-0.15,1.21,-1.28,1.76
17.621,-0.37,0.74,-0.85,1.18
17.631,-0.54,0.25,-0.58,0.83
17.641,-0.89,-0.21,-0.46,1.02
17.651,-1.25,-0.57,-0.40,1.43
17.661,-1.45,-0.86,-0.38,1.73
17.671,-1.60,-1.10,-0.39,1.98
17.681,-1.69,-1.19,-0.37,2.10
17.691,-1.65,-1.10,-0.36,2.02
17.701,-1.42,-0.90,-0.38,1.73
17.711,-1.20,-0.74,-0.44,1.48
17.721,-1.01,-0.62,-0.48,1.28
17.731,-0.83,-0.60,-0.41,1.10
17.741,-0.74,-0.73,-0.35,1.10
17.751,-0.70,-0.84,-0.33,1.14
17.761,-0.87,-0.90,-0.34,1.30
17.771,-1.15,-0.92,-0.28,1.50
17.781,-1.29,-0.89,-0.18,1.58
17.791,-1.31,-0.84,-0.15,1.56
17.801,-1.23,-0.74,-0.17,1.45
17.811,-1.09,-0.67,-0.24,1.30
17.821,-0.93,-0.52,-0.22,1.09
17.831,-0.80,-0.37,-0.15,0.89
17.841,-0.68,-0.32,-0.04,0.76
17.851,-0.69,-0.36,0.07,0.78
17.861,-0.67,-0.38,0.16,0.79
17.871,-0.61,-0.46,0.23,0.80
17.881,-0.50,-0.54,0.32,0.81
17.891,-0.34,-0.63,0.37,0.81
17.901,-0.15,-0.69,0.39,0.81
17.911,-0.00,-0.78,0.49,0.92
17.921,0.03,-0.93,0.52,1.06
17.931,0.05,-1.09,0.44,1.17
17.941,0.08,-1.15,0.55,1.28
17.951,0.10,-1.20,0.61,1.35
17.961,0.22,-1.29,0.51,1.41
17.971,0.28,-1.38,0.57,1.52
17.981,0.28,-1.58,0.62,1.72
17.991,0.38,-1.75,0.69,1.92
18.001,0.54,-1.79,0.99,2.12
18.011,0.61,-1.74,1.34,2.28
18.021,0.60,-1.61,1.60,2.35
18.032,0.82,-1.36,1.77,2.37
18.041,1.30,-0.89,1.68,2.30
18.051,1.81,-0.49,1.17,2.21
18.061,2.18,-0.10,0.85,2.35
18.072,2.45,-0.03,1.01,2.65
18.082,2.64,-0.43,0.55,2.73
18.091,2.32,-0.41,-0.18,2.36
18.101,2.03,0.24,-0.53,2.11
18.111,1.43,0.72,-1.16,1.98
18.121,0.59,0.75,-2.05,2.26
18.132,0.27,0.79,-2.77,2.90
18.141,0.41,0.97,-2.98,3.16
18.152,0.47,1.14,-2.98,3.23
18.162,0.46,1.53,-2.40,2.88
18.172,0.57,1.85,-1.59,2.50
18.182,0.79,1.94,-1.07,2.35
18.192,0.96,1.76,-0.78,2.15
18.202,1.02,1.17,-0.50,1.63
18.212,1.04,0.44,-0.23,1.15
18.222,0.91,-0.07,0.04,0.92
18.232,0.65,-0.26,0.13,0.71
18.242,0.46,-0.11,-0.07,0.48
18.252,0.18,0.24,-0.26,0.40
18.262,-0.18,0.58,-0.37,0.71
18.272,-0.41,0.76,-0.42,0.96
18.282,-0.65,0.79,-0.45,1.12
18.292,-1.01,0.73,-0.35,1.29
18.302,-1.39,0.36,-0.21,1.45
18.312,-1.58,-0.18,-0.06,1.60
18.322,-1.52,-0.66,0.16,1.67
18.332,-1.39,-0.86,0.27,1.66
18.342,-1.27,-0.78,0.22,1.51
18.352,-1.10,-0.56,0.13,1.24
18.362,-0.94,-0.24,-0.02,0.97
18.372,-0.78,0.13,-0.16,0.80
18.382,-0.74,0.45,-0.22,0.90
18.392,-0.85,0.71,-0.18,1.12
18.402,-1.09,0.92,-0.09,1.43
18.412,-1.38,1.07,0.02,1.75
18.422,-1.66,1.07,0.10,1.97
18.432,-1.90,0.89,0.15,2.10
18.442,-2.03,0.59,0.15,2.12
18.452,-2.01,0.32,0.18,2.04
18.462,-1.90,0.10,0.21,1.91
18.472,-1.80,-0.03,0.29,1.83
18.482,-1.70,-0.10,0.36,1.74
18.492,-1.57,-0.20,0.48,1.65
18.502,-1.45,-0.29,0.57,1.58
18.512,-1.38,-0.34,0.66,1.56
18.522,-1.32,-0.31,0.62,1.50
18.532,-1.32,-0.19,0.59,1.46
18.542,-1.22,0.05,0.60,1.35
18.552,-0.98,0.35,0.57,1.18
18.562,-0.59,0.67,0.60,1.07
18.572,-0.10,0.90,0.62,1.09
18.582,0.32,1.10,0.47,1.24
18.592,0.51,1.40,0.21,1.51
18.602,0.59,1.72,0.23,1.83
18.612,0.63,1.77,0.14,1.89
18.622,0.80,1.70,0.29,1.90
18.632,0.85,1.40,0.82,1.83
18.642,0.74,0.84,1.52,1.89
18.652,0.71,0.19,2.30,2.42
18.662,0.65,-0.41,3.01,3.11
18.672,0.38,-0.96,3.56,3.71
18.682,0.08,-1.53,3.95,4.23
18.692,0.32,-2.10,3.91,4.45
18.702,1.68,-2.33,3.28,4.36
18.712,3.38,-2.27,2.42,4.74
18.722,4.39,-2.11,1.98,5.26
18.732,4.65,-1.19,1.15,4.94
18.742,4.23,0.53,-0.49,4.29
18.752,3.02,1.88,-1.46,3.84
18.762,1.37,2.73,-2.44,3.91
18.772,0.65,3.66,-3.04,4.80
18.782,0.41,4.12,-3.31,5.30
18.792,0.30,4.20,-3.75,5.64
18.802,0.16,4.06,-3.45,5.33
18.812,-1.05,2.50,-2.91,3.98
18.822,-1.89,0.76,-2.26,3.04
18.832,-2.06,-0.39,-2.18,3.03
18.842,-2.29,-1.02,-2.35,3.44
18.852,-1.35,-0.86,-2.48,2.95
18.862,-0.43,-0.11,-2.67,2.71
18.872,-0.24,0.62,-2.41,2.50
18.882,0.07,1.28,-2.02,2.39
18.892,0.66,1.61,-1.98,2.64
18.902,0.71,1.69,-2.08,2.77
18.912,0.28,1.60,-1.85,2.47
18.922,-0.12,1.27,-1.45,1.93
18.932,-0.29,0.83,-1.14,1.44
18.942,-0.37,0.50,-0.97,1.15
18.952,-0.63,0.15,-0.89,1.10
18.962,-0.89,-0.20,-0.89,1.27
18.972,-0.99,-0.48,-0.83,1.38
18.982,-1.17,-0.70,-0.75,1.55
18.992,-1.42,-0.79,-0.73,1.78
19.002,-1.66,-0.77,-0.77,1.99
19.012,-1.60,-0.67,-0.76,1.90
19.022,-1.26,-0.55,-0.74,1.56
19.032,-0.92,-0.51,-0.69,1.26
19.042,-0.65,-0.51,-0.58,1.01
19.052,-0.59,-0.64,-0.48,0.99
19.062,-0.73,-0.86,-0.38,1.19
19.072,-0.87,-1.11,-0.28,1.44
19.082,-0.90,-1.32,-0.23,1.62
19.092,-0.85,-1.44,-0.17,1.68
19.102,-0.68,-1.44,-0.10,1.59
19.112,-0.56,-1.35,0.00,1.46
19.122,-0.55,-1.30,0.05,1.41
19.132,-0.59,-1.24,0.10,1.37
19.142,-0.66,-1.21,0.21,1.40
19.152,-0.79,-1.24,0.27,1.49
19.162,-0.81,-1.22,0.37,1.51
19.172,-0.74,-1.09,0.45,1.39
19.182,-0.70,-0.99,0.50,1.31
19.192,-0.73,-0.88,0.57,1.28
19.202,-0.75,-0.80,0.65,1.28
19.212,-0.83,-0.80,0.76,1.39
19.222,-1.00,-0.87,0.82,1.56
19.232,-1.23,-0.96,0.86,1.78
19.242,-1.39,-1.11,0.88,1.99
19.252,-1.27,-1.35,0.77,2.00
19.262,-0.99,-1.50,0.64,1.91
19.272,-0.50,-1.59,0.53,1.75
19.282,0.04,-1.67,0.36,1.71
19.292,0.51,-1.73,0.27,1.82
19.302,0.92,-1.65,0.34,1.92
19.312,1.16,-1.53,0.48,1.98
19.322,1.33,-1.46,0.68,2.09
19.332,1.46,-1.38,0.92,2.21
19.342,1.44,-1.41,1.15,2.32
19.352,1.32,-1.45,1.34,2.37
19.362,1.28,-1.36,1.55,2.43
19.372,1.32,-1.09,1.65,2.38
19.382,1.21,-0.88,1.65,2.23
19.392,1.03,-0.88,1.57,2.08
19.402,1.26,-1.06,1.54,2.25
19.412,1.88,-1.20,1.18,2.52
19.422,2.08,-0.81,0.73,2.35
19.432,2.22,-0.12,0.11,2.23
19.442,2.58,0.49,-0.82,2.75
19.452,2.26,0.70,-1.67,2.90
19.462,1.65,0.66,-2.17,2.81
19.472,1.39,0.75,-2.63,3.07
19.482,1.37,1.20,-2.75,3.30
19.492,1.15,1.83,-2.74,3.49
19.502,0.65,2.41,-2.60,3.60
19.512,0.29,2.83,-2.04,3.50
19.522,0.05,2.96,-1.59,3.36
19.532,-0.19,2.79,-1.12,3.01
19.542,-0.23,2.15,-0.79,2.30
19.552,-0.26,1.29,-0.36,1.36
19.562,-0.43,0.47,0.03,0.64
19.573,-0.43,-0.07,-0.00,0.44
19.582,-0.37,-0.05,-0.28,0.46
19.593,-0.29,0.23,-0.44,0.58
19.603,-0.29,0.41,-0.56,0.75
19.613,-0.38,0.43,-0.57,0.81
19.622,-0.47,0.37,-0.50,0.78
19.633,-0.65,0.29,-0.36,0.79
19.643,-0.85,0.20,-0.17,0.89
19.653,-0.98,0.04,0.02,0.98
19.662,-1.14,-0.11,0.21,1.17
19.673,-1.30,-0.22,0.34,1.36
19.683,-1.33,-0.29,0.37,1.41
19.693,-1.20,-0.28,0.42,1.30
19.703,-1.07,-0.24,0.38,1.16
19.713,-0.97,-0.24,0.40,1.07
19.723,-0.84,-0.26,0.44,0.98
19.733,-0.74,-0.17,0.46,0.89
19.742,-0.87,-0.06,0.52,1.01
19.753,-1.08,0.01,0.54,1.21
19.763,-1.37,0.08,0.54,1.48
19.773,-1.69,0.11,0.56,1.79
19.783,-1.95,0.04,0.55,2.02
19.793,-2.03,-0.02,0.59,2.11
19.803,-2.00,-0.06,0.58,2.08
19.813,-1.92,-0.02,0.50,1.98
19.823,-1.79,0.05,0.52,1.87
19.833,-1.62,0.05,0.50,1.69
19.843,-1.40,-0.08,0.59,1.52
19.853,-1.18,-0.25,0.68,1.38
19.863,-1.05,-0.48,0.81,1.41
19.873,-0.97,-0.63,0.89,1.46
19.883,-0.97,-0.58,0.87,1.42
19.893,-0.87,-0.20,0.82,1.21
19.903,-0.71,0.35,0.78,1.11
19.913,-0.60,0.87,0.67,1.25
19.923,-0.52,1.18,0.69,1.46
19.933,-0.46,1.30,0.53,1.48
19.943,-0.34,1.27,0.40,1.37
19.953,-0.20,1.06,0.41,1.16
19.963,0.03,0.83,0.67,1.07
19.973,0.41,0.73,1.04,1.34
19.983,0.69,0.74,1.42,1.74
19.993,0.74,0.67,1.77,2.04
20.003,0.83,0.40,2.22,2.41
20.013,0.95,-0.07,2.63,2.79
20.023,1.46,-0.45,2.48,2.92
20.033,2.77,-0.43,1.63,3.25
20.043,4.29,-0.21,0.78,4.36
20.053,5.63,0.21,0.70,5.67
20.063,7.01,1.15,0.20,7.10
20.073,7.45,2.35,-0.51,7.83
20.083,5.76,3.07,-0.92,6.59
20.093,2.90,3.29,-1.42,4.61
20.103,0.20,2.90,-1.30,3.19
20.113,-1.77,1.86,-1.23,2.85
20.123,-2.46,1.17,-1.23,2.99
20.133,-2.30,0.59,-1.29,2.71
20.143,-2.12,-0.30,-1.25,2.48
20.153,-2.12,-1.35,-1.37,2.86
20.163,-1.89,-2.00,-2.08,3.45
20.173,-1.33,-2.07,-2.67,3.62
20.183,-0.69,-1.68,-2.99,3.50
20.193,-0.12,-0.93,-2.98,3.12
20.203,0.65,-0.12,-2.79,2.87
20.213,0.68,0.36,-2.57,2.68
20.223,0.35,0.76,-2.12,2.28
20.233,-0.11,0.99,-1.81,2.06
20.243,-0.61,1.05,-1.31,1.79
20.253,-0.96,0.96,-0.89,1.62
20.263,-1.17,0.78,-0.58,1.52
20.273,-1.22,0.42,-0.44,1.36
20.283,-1.18,-0.05,-0.50,1.28
20.293,-1.08,-0.41,-0.69,1.35
20.303,-0.96,-0.58,-0.86,1.41
20.313,-0.91,-0.62,-0.94,1.45
20.323,-0.90,-0.57,-0.93,1.41
20.333,-0.92,-0.46,-0.85,1.34
20.343,-0.88,-0.37,-0.78,1.23
20.353,-0.73,-0.30,-0.71,1.06
20.364,-0.69,-0.30,-0.55,0.93
20.373,-0.83,-0.32,-0.45,0.99
20.383,-1.11,-0.32,-0.35,1.21
20.393,-1.41,-0.32,-0.28,1.47
20.403,-1.64,-0.40,-0.22,1.70
20.413,-1.64,-0.45,-0.12,1.70
20.423,-1.43,-0.56,-0.03,1.54
20.433,-1.17,-0.64,0.05,1.34
20.443,-1.01,-0.69,0.11,1.23
20.453,-0.99,-0.74,0.27,1.26
20.463,-1.13,-0.84,0.35,1.45
20.473,-1.40,-0.92,0.42,1.73
20.483,-1.62,-1.03,0.51,1.98
20.493,-1.65,-1.08,0.62,2.07
20.503,-1.47,-1.10,0.76,1.98
20.513,-1.15,-1.14,0.89,1.85
20.523,-0.71,-1.15,1.01,1.69
20.533,-0.33,-1.16,1.03,1.58
20.543,-0.12,-1.19,1.03,1.57
20.553,-0.19,-1.38,0.92,1.67
20.563,-0.38,-2.14,0.39,2.21
20.573,-0.09,-2.52,0.05,2.53
20.583,0.39,-1.96,0.03,2.00
20.593,0.61,-1.40,-0.09,1.53
20.603,0.68,-0.93,-0.02,1.15
20.613,0.49,-0.82,0.13,0.96
20.623,0.48,-0.99,0.36,1.16
20.633,0.71,-1.29,0.75,1.65
20.643,1.01,-1.55,1.13,2.17
20.653,1.06,-1.69,1.42,2.45
20.663,0.85,-1.69,1.60,2.48
20.673,0.70,-1.57,1.73,2.43
20.683,0.86,-1.33,1.80,2.40
20.693,1.34,-0.98,1.67,2.36
20.703,1.89,-0.55,1.24,2.33
20.713,2.10,-0.27,1.26,2.47
20.723,2.13,-0.84,0.72,2.40
20.733,2.20,-1.27,-0.26,2.55
20.743,2.21,-0.85,-1.58,2.85
20.753,1.28,-0.28,-2.39,2.72
20.763,0.27,0.29,-2.66,2.69
20.773,0.33,1.28,-2.36,2.70
20.783,0.75,2.10,-2.41,3.28
20.793,1.09,2.95,-2.47,3.99
20.803,1.31,3.72,-1.60,4.25
20.813,1.63,4.10,-0.87,4.50
20.823,2.08,3.89,-0.54,4.44
20.833,2.28,2.75,-0.41,3.60
20.843,2.38,1.06,-0.23,2.62
20.853,2.60,-0.39,0.00,2.63
20.863,2.55,-1.23,0.19,2.83
20.873,1.89,-1.47,0.27,2.41
20.883,0.73,-1.15,0.30,1.39
20.893,-0.44,-0.52,0.26,0.73
20.904,-1.18,0.10,0.12,1.19
20.913,-1.71,0.65,-0.17,1.84
20.923,-1.94,1.09,-0.45,2.27
20.934,-2.01,1.37,-0.50,2.49
20.943,-2.04,1.39,-0.51,2.52
20.953,-2.08,1.03,-0.53,2.38
20.964,-2.15,0.48,-0.46,2.25
20.974,-2.11,0.07,-0.45,2.16
20.983,-1.90,-0.15,-0.50,1.97
20.994,-1.74,-0.25,-0.61,1.86
21.004,-1.59,-0.11,-0.70,1.74
21.014,-1.51,0.09,-0.71,1.67
21.024,-1.47,0.28,-0.65,1.63
21.034,-1.47,0.54,-0.45,1.63
21.043,-1.44,0.76,-0.29,1.66
21.054,-1.37,0.92,-0.21,1.67
21.063,-1.44,1.00,-0.18,1.77
21.074,-1.49,0.96,-0.09,1.77
21.084,-1.47,0.81,0.03,1.68
21.094,-1.41,0.62,0.15,1.55
21.104,-1.39,0.36,0.27,1.46
21.114,-1.40,0.11,0.47,1.48
21.124,-1.29,-0.13,0.63,1.44
21.134,-1.10,-0.36,0.78,1.40
21.144,-1.01,-0.59,0.94,1.50
21.154,-0.98,-0.75,1.07,1.63
21.164,-0.97,-0.79,1.14,1.69
21.174,-0.89,-0.61,1.17,1.59
21.184,-0.73,-0.14,1.05,1.28
21.194,-0.59,0.48,1.06,1.30
21.204,-0.52,0.83,1.13,1.49
21.214,-0.55,0.76,1.14,1.48
21.224,-0.58,0.50,1.02,1.28
21.234,-0.54,0.17,0.99,1.14
21.244,-0.32,-0.04,0.90,0.95
21.254,0.13,0.04,1.02,1.03
21.264,0.49,0.16,1.38,1.47
21.274,0.69,0.24,1.78,1.92
21.284,0.75,0.31,2.10,2.25
21.294,0.76,0.22,2.44,2.57
21.304,0.69,-0.15,2.69,2.78
21.314,0.91,-0.37,2.56,2.74
21.324,1.99,-0.10,1.58,2.54
21.334,3.19,0.18,0.55,3.25
21.344,4.20,0.27,0.22,4.22
21.354,5.29,1.24,-0.23,5.44
21.364,6.21,2.91,-0.67,6.89
21.374,5.46,3.78,-1.30,6.77
21.384,3.36,3.98,-1.46,5.41
21.394,0.65,3.57,-1.61,3.97
21.404,-1.26,2.64,-1.77,3.42
21.414,-1.77,1.93,-1.58,3.06
21.424,-1.90,0.94,-1.80,2.78
21.434,-1.91,-0.36,-1.69,2.58
21.444,-1.74,-1.39,-2.07,3.03
21.454,-1.29,-1.64,-2.64,3.36
21.464,-0.55,-1.31,-2.95,3.28
21.474,0.16,-0.65,-3.05,3.12
21.484,0.68,0.05,-2.95,3.03
21.494,0.49,0.68,-2.77,2.89
21.504,1.10,1.60,-2.60,3.25
21.514,0.84,2.03,-2.52,3.34
21.524,-0.40,1.71,-2.13,2.76
21.534,-1.02,1.38,-1.43,2.23
21.544,-0.93,1.00,-1.11,1.76
21.554,-0.77,0.59,-0.92,1.34
21.564,-0.91,0.11,-0.67,1.13
21.574,-1.15,-0.33,-0.55,1.31
21.584,-1.20,-0.53,-0.53,1.41
21.594,-1.25,-0.64,-0.57,1.52
21.604,-1.35,-0.75,-0.63,1.67
21.614,-1.47,-0.83,-0.64,1.81
21.624,-1.29,-0.90,-0.59,1.68
21.634,-0.95,-0.89,-0.57,1.42
21.644,-0.76,-0.84,-0.54,1.25
21.654,-0.73,-0.77,-0.42,1.14
21.664,-0.80,-0.75,-0.29,1.14
21.674,-0.89,-0.82,-0.24,1.23
21.684,-0.97,-0.90,-0.16,1.33
21.694,-0.99,-1.08,-0.05,1.47
21.704,-0.91,-1.28,0.00,1.57
21.714,-0.83,-1.36,0.07,1.59
21.724,-0.78,-1.30,0.10,1.52
21.734,-0.79,-1.14,0.07,1.39
21.744,-0.92,-0.88,-0.00,1.27
21.754,-0.99,-0.62,0.00,1.17
21.764,-1.04,-0.51,0.03,1.16
21.774,-1.04,-0.51,0.04,1.16
21.784,-0.97,-0.54,0.04,1.11
21.794,-0.90,-0.57,0.02,1.06
21.804,-0.81,-0.58,0.04,0.99
21.814,-0.65,-0.55,0.13,0.86
21.824,-0.44,-0.55,0.29,0.76
21.834,-0.36,-0.65,0.51,0.90
21.844,-0.50,-1.01,0.57,1.26
21.854,-0.53,-1.41,0.56,1.60
21.864,-0.36,-1.71,0.50,1.82
21.874,-0.02,-1.91,0.33,1.94
21.884,0.33,-1.93,0.10,1.96
21.894,0.61,-1.75,0.06,1.86
21.904,0.81,-1.55,0.07,1.75
21.914,0.92,-1.43,0.14,1.70
21.924,1.00,-1.31,0.31,1.68
21.934,1.04,-1.21,0.61,1.71
21.944,0.99,-1.15,0.91,1.77
21.954,0.98,-1.15,1.18,1.92
21.964,0.88,-1.24,1.37,2.05
21.974,0.75,-1.39,1.52,2.19
21.984,0.69,-1.46,1.61,2.28
21.994,0.84,-1.34,1.59,2.24
22.004,1.12,-1.06,1.39,2.08
22.014,1.33,-0.95,0.99,1.91
22.024,1.61,-0.90,0.73,1.98
22.034,2.19,-0.90,0.28,2.38
22.044,2.54,-0.43,-0.29,2.60
22.054,2.26,0.33,-0.73,2.40
22.064,1.65,0.91,-1.29,2.28
22.074,0.78,1.28,-1.83,2.37
22.084,0.06,1.55,-2.24,2.72
22.094,0.02,1.67,-2.38,2.91
22.104,0.41,1.88,-2.20,2.92
22.114,0.84,2.25,-2.07,3.18
22.124,1.32,2.59,-1.35,3.20
22.134,1.82,2.65,-0.64,3.28
22.144,2.10,2.38,-0.23,3.18
22.154,2.02,1.50,-0.01,2.52
22.164,1.53,0.37,0.11,1.58
22.174,0.92,-0.63,0.35,1.17
22.184,0.27,-1.33,0.32,1.39
22.194,-0.14,-1.53,0.17,1.54
22.204,-0.47,-1.19,0.01,1.28
22.214,-0.93,-0.56,-0.13,1.10
22.224,-1.45,-0.00,-0.22,1.47
22.235,-1.80,0.39,-0.32,1.87
22.244,-2.05,0.67,-0.39,2.19
22.254,-2.25,0.83,-0.40,2.43
22.264,-2.34,0.90,-0.40,2.53
22.274,-2.46,0.79,-0.34,2.61
22.284,-2.51,0.61,-0.23,2.59
22.294,-2.27,0.30,-0.15,2.30
22.304,-1.95,0.01,-0.12,1.95
22.314,-1.60,-0.17,-0.19,1.63
22.324,-1.25,-0.18,-0.20,1.27
22.334,-0.83,-0.05,-0.17,0.85
22.344,-0.50,0.23,-0.16,0.58
22.354,-0.32,0.48,-0.13,0.59
22.364,-0.38,0.64,-0.10,0.75
22.375,-0.62,0.69,-0.04,0.92
22.385,-0.93,0.67,0.15,1.16
22.395,-1.36,0.52,0.31,1.49
22.404,-1.63,0.33,0.37,1.71
22.415,-1.69,0.16,0.53,1.78
22.425,-1.71,-0.13,0.52,1.79
22.435,-1.61,-0.39,0.57,1.75
22.445,-1.37,-0.55,0.60,1.59
22.455,-1.09,-0.64,0.66,1.43
22.464,-0.79,-0.75,0.79,1.34
22.475,-0.59,-0.83,0.90,1.36
22.485,-0.54,-0.85,0.90,1.35
22.495,-0.59,-0.71,0.78,1.21
22.504,-0.55,-0.31,0.80,1.02
22.515,-0.39,0.24,0.86,0.97
22.524,-0.11,0.75,0.96,1.23
22.535,0.13,1.00,0.95,1.38
22.545,0.17,1.03,0.64,1.22
22.555,0.29,1.09,0.43,1.21
22.564,0.59,1.03,0.49,1.28
22.575,0.86,0.94,0.64,1.43
22.585,1.02,0.95,1.12,1.79
22.595,0.81,0.84,1.78,2.12
22.604,0.46,0.53,2.35,2.45
22.615,0.18,0.09,2.88,2.89
22.625,-0.01,-0.38,3.36,3.38
22.635,0.02,-0.83,3.48,3.58
22.644,0.55,-1.17,3.14,3.40
22.655,1.94,-1.24,2.20,3.18
22.665,3.48,-1.05,1.19,3.83
22.675,4.62,-0.37,1.04,4.75
22.685,5.22,0.98,0.70,5.36
22.695,4.61,2.58,-0.39,5.30
22.705,2.57,3.17,-1.16,4.25
22.715,0.30,2.89,-1.83,3.44
22.725,-0.97,2.39,-2.56,3.64
22.735,-1.69,1.60,-3.01,3.81
22.745,-0.98,1.17,-3.18,3.53
22.755,0.14,0.67,-3.57,3.64
22.765,0.25,-0.33,-3.43,3.46
22.775,0.12,-1.08,-3.12,3.31
22.785,0.15,-1.05,-3.16,3.33
22.795,0.07,-0.47,-3.11,3.15
22.805,-0.08,0.15,-2.98,2.99
22.815,-0.24,0.88,-2.68,2.83
22.825,-0.42,1.54,-2.33,2.83
22.835,-0.39,1.99,-2.10,2.92
22.845,-0.32,2.01,-1.88,2.77
22.855,-0.75,1.53,-1.57,2.32
22.865,-0.20,1.28,-1.22,1.77
22.875,-0.34,0.89,-1.21,1.54
22.885,-1.34,0.09,-0.81,1.57
22.895,-1.84,-0.38,-0.46,1.93
22.905,-1.33,-0.69,-0.47,1.57
22.915,-0.85,-1.02,-0.75,1.52
22.925,-0.97,-1.27,-0.92,1.85
22.935,-1.44,-1.54,-0.91,2.30
22.945,-1.74,-1.57,-0.87,2.50
22.955,-1.50,-1.30,-0.75,2.12
22.965,-1.13,-0.96,-0.65,1.62
22.975,-0.97,-0.56,-0.47,1.21
22.985,-0.81,-0.29,-0.31,0.91
22.995,-0.64,-0.16,-0.21,0.69
23.005,-0.60,-0.18,-0.05,0.63
23.015,-0.69,-0.31,0.10,0.77
23.025,-0.72,-0.52,0.23,0.92
23.035,-0.76,-0.74,0.29,1.10
23.045,-0.87,-0.92,0.31,1.30
23.055,-0.97,-1.00,0.37,1.44
23.065,-0.99,-0.98,0.40,1.45
23.075,-1.04,-0.91,0.50,1.47
23.085,-1.13,-0.90,0.55,1.54
23.095,-1.21,-0.91,0.66,1.65
23.105,-1.29,-1.00,0.69,1.77
23.115,-1.24,-1.10,0.70,1.80
23.125,-1.00,-1.15,0.72,1.69
23.135,-0.64,-1.26,0.69,1.58
23.145,-0.17,-1.43,0.47,1.51
23.155,0.30,-1.43,0.27,1.49
23.165,0.46,-1.24,0.22,1.35
23.175,0.42,-0.83,0.49,1.05
23.185,0.20,-0.38,0.93,1.02
23.195,0.06,-0.20,1.03,1.05
23.205,-0.00,-0.41,0.66,0.77
23.215,-0.18,-0.98,0.36,1.06
23.225,-0.26,-1.57,0.55,1.68
23.235,0.02,-1.94,0.77,2.08
23.245,0.36,-2.18,1.06,2.45
23.255,0.69,-2.55,1.45,3.01
23.265,1.04,-2.78,1.85,3.50
23.275,1.76,-2.74,1.93,3.79
23.285,2.74,-2.38,1.72,4.02
23.295,3.67,-1.78,1.42,4.32
23.305,4.29,-1.18,1.08,4.58
23.315,4.19,-0.58,0.29,4.24
23.325,3.55,0.25,-0.57,3.61
23.335,3.20,0.98,-1.16,3.54
23.345,2.52,1.25,-1.64,3.26
23.355,1.54,1.42,-2.04,2.93
23.365,0.72,1.81,-2.40,3.09
23.375,0.22,2.13,-2.54,3.32
23.385,-0.29,2.39,-2.42,3.41
23.395,-0.76,2.58,-2.24,3.50
23.405,-1.26,2.59,-2.05,3.54
23.415,-1.55,2.35,-1.59,3.24
23.425,-1.45,1.95,-0.98,2.62
23.435,-1.12,1.56,-0.42,1.97
23.445,-0.61,0.98,-0.19,1.17
23.455,-0.08,0.24,0.17,0.30
23.465,0.37,-0.46,0.43,0.73
23.475,0.87,-0.59,0.15,1.06
23.485,1.19,-0.01,-0.20,1.20
23.495,1.18,0.84,-0.36,1.50
23.505,0.93,1.43,-0.61,1.81
23.515,0.60,1.65,-0.79,1.92
23.525,-0.03,1.39,-0.78,1.59
23.535,-0.73,0.86,-0.60,1.28
23.545,-1.28,0.29,-0.29,1.34
23.555,-1.63,-0.32,-0.16,1.67
23.565,-1.79,-0.73,0.04,1.94
23.575,-1.89,-0.93,0.18,2.12
23.585,-1.94,-0.96,0.31,2.19
23.595,-1.97,-0.87,0.40,2.19
23.605,-1.83,-0.64,0.53,2.01
23.615,-1.56,-0.40,0.54,1.70
23.625,-1.28,-0.11,0.47,1.37
23.635,-1.12,0.28,0.41,1.22
23.645,-1.14,0.67,0.33,1.36
23.655,-1.27,0.93,0.31,1.61
23.665,-1.39,1.09,0.28,1.79
23.675,-1.43,1.15,0.29,1.86
23.685,-1.43,1.03,0.48,1.82
23.695,-1.38,0.70,0.65,1.68
23.705,-1.43,0.36,0.76,1.66
23.715,-1.47,0.02,0.83,1.69
23.725,-1.46,-0.30,0.89,1.74
23.735,-1.38,-0.57,1.05,1.83
23.745,-1.35,-0.78,1.05,1.88
23.755,-1.37,-0.90,0.94,1.89
23.765,-1.44,-0.85,0.84,1.87
23.775,-1.38,-0.70,0.82,1.75
23.786,-0.96,-0.29,0.71,1.23
23.795,-0.22,0.74,0.57,0.96
23.805,0.24,1.66,0.90,1.90
23.816,0.65,1.76,1.37,2.32
23.826,0.83,1.46,0.96,1.94
23.835,0.81,1.14,0.99,1.71
23.846,0.68,0.62,1.23,1.54
23.856,0.53,0.34,1.37,1.51
23.866,0.33,0.30,1.67,1.73
23.876,0.08,0.18,1.99,2.00
23.886,-0.10,0.08,2.20,2.20
23.896,-0.15,0.00,2.42,2.42
23.906,-0.21,0.02,2.54,2.54
23.916,0.04,-0.02,2.52,2.52
23.926,1.04,-0.17,1.93,2.20
23.936,2.89,-0.08,1.09,3.09
23.946,4.46,0.14,0.68,4.52
23.956,5.74,0.99,0.61,5.86
23.966,5.86,2.37,-0.09,6.32
23.976,4.29,3.10,-0.87,5.37
23.986,1.86,2.92,-1.48,3.76
23.996,-0.09,2.30,-1.60,2.81
24.006,-1.28,1.47,-2.06,2.84
24.016,-1.95,0.89,-2.43,3.24
24.026,-1.56,0.56,-2.30,2.83
24.036,-0.75,-0.07,-2.42,2.54
24.046,-0.27,-0.90,-2.67,2.83
24.056,-0.07,-1.26,-2.88,3.15
24.066,-0.15,-0.96,-3.07,3.22
24.076,-0.31,-0.38,-3.08,3.12
24.086,-0.13,0.23,-3.01,3.02
24.096,0.21,0.77,-2.85,2.96
24.106,0.41,1.06,-2.66,2.89
24.116,0.51,1.18,-2.53,2.84
24.126,0.52,1.14,-2.38,2.69
24.136,0.41,0.95,-2.09,2.33
24.146,0.04,0.77,-1.75,1.91
24.156,-0.42,0.61,-1.37,1.56
24.166,-0.78,0.31,-0.98,1.29
24.176,-0.96,-0.08,-0.70,1.19
24.186,-0.99,-0.37,-0.61,1.22
24.196,-0.98,-0.53,-0.64,1.28
24.206,-1.04,-0.56,-0.69,1.37
24.216,-1.26,-0.57,-0.72,1.56
24.226,-1.61,-0.44,-0.73,1.82
24.236,-1.45,-0.06,-0.69,1.61
24.246,-1.61,-0.17,-0.66,1.75
24.256,-1.74,-0.34,-0.42,1.83
24.266,-1.29,-0.38,-0.24,1.37
24.276,-0.92,-0.57,-0.19,1.10
24.286,-0.85,-0.88,-0.09,1.22
24.296,-0.85,-1.21,0.07,1.48
24.306,-0.82,-1.43,0.20,1.66
24.316,-0.82,-1.59,0.20,1.80
24.326,-0.78,-1.65,0.22,1.83
24.336,-0.80,-1.64,0.21,1.84
24.346,-0.81,-1.59,0.23,1.80
24.356,-0.75,-1.50,0.26,1.70
24.366,-0.76,-1.40,0.30,1.62
24.376,-0.78,-1.35,0.37,1.60
24.386,-0.77,-1.33,0.39,1.58
24.396,-0.66,-1.26,0.34,1.47
24.406,-0.49,-1.19,0.28,1.32
24.416,-0.26,-1.08,0.26,1.14
24.426,-0.13,-0.93,0.32,0.99
24.436,-0.18,-0.80,0.42,0.93
24.446,-0.29,-0.82,0.50,1.00
24.456,-0.39,-0.94,0.50,1.13
24.466,-0.38,-1.23,0.38,1.35
24.476,-0.21,-1.59,0.26,1.62
24.486,0.01,-1.81,0.07,1.81
24.496,0.19,-1.78,-0.15,1.79
24.506,0.16,-1.55,-0.09,1.56
24.516,0.03,-1.37,0.07,1.38
24.526,0.00,-1.31,0.04,1.31
24.536,0.00,-1.21,0.07,1.21
24.546,0.02,-1.08,0.32,1.13
24.556,0.19,-0.96,0.64,1.17
24.566,0.45,-0.90,0.98,1.41
24.576,0.85,-0.93,1.29,1.80
24.586,1.41,-0.92,1.40,2.19
24.596,1.91,-0.99,1.32,2.52
24.606,2.24,-1.37,1.01,2.81
24.616,2.68,-1.73,0.82,3.29
24.626,3.02,-1.85,0.58,3.59
24.636,2.95,-1.25,0.23,3.21
24.646,2.70,-0.17,-0.11,2.71
24.656,2.26,0.67,-0.42,2.39
24.666,1.45,1.18,-0.90,2.07
24.676,0.60,1.50,-1.70,2.34
24.686,0.17,1.78,-2.41,3.00
24.696,-0.26,2.10,-2.54,3.31
24.706,-0.43,2.28,-2.26,3.24
24.716,-0.07,2.13,-1.76,2.77
24.726,0.51,1.60,-1.48,2.24
24.736,0.91,1.10,-1.08,1.79
24.746,1.03,0.73,-0.64,1.41
24.756,1.15,0.56,-0.22,1.29
24.766,1.10,0.35,-0.04,1.16
24.776,0.86,0.05,0.11,0.87
24.786,0.59,-0.30,0.09,0.67
24.796,0.43,-0.30,-0.14,0.54
24.806,0.44,0.13,-0.57,0.73
24.816,0.32,0.66,-0.88,1.14
24.826,-0.15,0.99,-1.00,1.41
24.836,-0.72,1.02,-1.07,1.64
24.846,-1.33,0.86,-1.01,1.88
24.856,-1.90,0.63,-0.90,2.20
24.866,-2.33,0.41,-0.79,2.50
24.876,-2.58,0.29,-0.60,2.66
24.886,-2.46,0.27,-0.44,2.51
24.896,-2.16,0.24,-0.36,2.21
24.906,-1.77,0.19,-0.26,1.80
24.916,-1.31,0.13,-0.20,1.33
24.926,-0.94,0.14,-0.07,0.95
24.936,-0.65,0.24,0.08,0.70
24.946,-0.42,0.40,0.20,0.62
24.956,-0.40,0.58,0.25,0.75
24.966,-0.60,0.74,0.29,0.99
24.976,-0.84,0.72,0.37,1.16
24.986,-1.10,0.56,0.36,1.29
24.996,-1.28,0.34,0.38,1.38
25.006,-1.39,0.10,0.38,1.45
25.016,-1.43,-0.09,0.33,1.47
25.026,-1.44,-0.18,0.31,1.48
25.036,-1.46,-0.24,0.27,1.50
25.046,-1.38,-0.26,0.27,1.43
25.056,-1.22,-0.30,0.26,1.29
25.066,-1.14,-0.38,0.39,1.27
25.076,-1.26,-0.45,0.42,1.40
25.086,-1.40,-0.45,0.40,1.52
25.096,-1.54,-0.34,0.57,1.67
25.106,-1.30,-0.07,0.74,1.50
25.116,-0.80,0.49,0.52,1.07
25.126,-0.44,1.05,0.67,1.32
25.136,-0.09,1.30,0.73,1.49
25.146,0.12,1.39,0.64,1.53
25.156,0.16,1.15,0.70,1.36
25.166,0.09,0.65,0.49,0.82
25.176,0.20,0.24,0.60,0.68
25.186,0.39,-0.22,0.78,0.90
25.196,0.42,-0.48,1.12,1.29
25.206,0.35,-0.61,1.57,1.72
25.216,0.17,-0.78,1.98,2.13
25.226,-0.06,-1.11,2.43,2.67
25.237,-0.30,-1.46,2.87,3.23
25.246,-0.45,-1.75,3.14,3.62
25.256,-0.15,-1.80,3.04,3.53
25.267,0.87,-1.50,2.60,3.13
25.276,2.41,-0.78,1.58,2.98
25.287,3.80,0.04,1.03,3.94
25.297,4.60,0.89,0.83,4.76
25.307,4.43,2.03,-0.25,4.88
25.317,3.53,3.09,-1.53,4.93
25.327,1.99,3.61,-2.52,4.83
25.337,1.35,3.71,-3.05,4.99
25.347,1.31,3.45,-3.37,5.00
25.357,1.21,2.97,-3.74,4.92
25.367,0.89,2.37,-3.27,4.14
25.377,-0.05,1.14,-2.75,2.98
25.387,-0.85,-0.38,-2.34,2.52
25.397,-1.23,-1.56,-2.13,2.91
25.407,-1.43,-2.07,-2.13,3.30
25.417,-1.25,-1.64,-2.26,3.06
25.427,-0.65,-0.50,-2.21,2.36
25.437,0.06,0.74,-1.92,2.06
25.447,0.63,1.50,-1.62,2.29
25.457,1.10,1.77,-1.48,2.56
25.467,1.21,1.65,-1.40,2.48
25.477,0.71,1.27,-1.21,1.89
25.487,0.15,0.70,-0.92,1.16
25.497,-0.31,0.14,-0.52,0.63
25.507,-0.69,-0.37,-0.23,0.81
25.517,-1.05,-0.78,-0.10,1.31
25.527,-1.35,-1.13,-0.14,1.77
25.537,-1.64,-1.40,-0.25,2.17
25.547,-1.81,-1.57,-0.32,2.42
25.557,-1.59,-1.45,-0.23,2.16
25.567,-1.48,-1.11,-0.22,1.87
25.577,-1.54,-0.72,-0.29,1.72
25.587,-1.35,-0.45,-0.40,1.47
25.597,-0.97,-0.34,-0.45,1.12
25.607,-0.59,-0.33,-0.40,0.79
25.617,-0.31,-0.47,-0.32,0.65
25.627,-0.32,-0.67,-0.28,0.79
25.637,-0.62,-0.83,-0.23,1.06
25.647,-0.94,-0.92,-0.16,1.33
25.657,-1.16,-0.96,-0.14,1.51
25.667,-1.26,-0.92,-0.16,1.57
25.677,-1.15,-0.81,-0.20,1.42
25.687,-0.89,-0.64,-0.20,1.12
25.697,-0.67,-0.55,-0.23,0.89
25.707,-0.48,-0.43,-0.30,0.72
25.717,-0.35,-0.31,-0.26,0.53
25.727,-0.39,-0.21,-0.27,0.52
25.737,-0.45,-0.06,-0.21,0.50
25.747,-0.47,0.14,-0.09,0.50
25.757,-0.52,0.18,-0.05,0.55
25.767,-0.46,0.09,-0.15,0.49
25.777,-0.35,-0.06,-0.28,0.46
25.787,-0.40,-0.35,-0.31,0.61
25.797,-0.57,-0.76,-0.26,0.99
25.807,0.01,-1.16,-0.63,1.32
25.817,0.42,-1.27,-0.31,1.38
25.827,0.53,-1.51,-0.20,1.62
25.837,0.99,-2.08,-0.00,2.31
25.847,0.52,-2.52,-1.03,2.77
25.857,0.57,-1.33,0.22,1.47
25.867,0.32,-1.41,0.02,1.44
25.877,0.67,-1.73,-0.09,1.86
25.887,1.15,-1.44,0.22,1.85
25.897,1.43,-1.24,0.33,1.92
25.907,1.90,-1.24,0.43,2.30
25.917,2.56,-1.10,0.35,2.81
25.927,2.99,-0.78,0.43,3.12
25.937,2.92,-0.62,0.63,3.05
25.947,2.25,-0.41,0.42,2.32
25.957,2.09,-0.10,0.35,2.12
25.967,2.30,0.41,-0.32,2.36
25.977,2.02,1.24,-0.96,2.55
25.987,0.97,1.83,-1.43,2.52
25.997,0.24,1.98,-1.64,2.58
26.007,0.33,1.66,-1.49,2.25
26.017,0.51,1.20,-1.49,1.98
26.027,0.14,1.10,-1.32,1.72
26.037,-0.22,1.58,-0.60,1.71
26.047,0.17,2.25,0.27,2.27
26.057,0.67,2.57,0.77,2.76
26.067,0.72,1.78,0.90,2.12
26.077,0.60,0.52,0.91,1.21
26.087,0.39,-0.08,0.79,0.88
26.097,0.12,0.08,0.27,0.30
26.109,-0.08,0.48,-0.09,0.49
26.117,-0.59,0.75,-0.32,1.00
26.127,-1.15,0.77,-0.67,1.53
26.137,-1.67,0.79,-0.90,2.05
26.147,-1.93,1.00,-0.78,2.31
26.157,-1.62,1.27,-0.56,2.14
26.167,-0.93,1.71,-0.48,2.01
26.177,-0.54,2.01,-0.49,2.14
26.187,-0.32,1.79,-0.45,1.87
26.197,0.07,1.23,-0.30,1.27
26.207,-0.05,0.65,-0.40,0.77
26.217,-0.59,0.36,-0.60,0.92
26.227,-0.88,0.34,-0.67,1.16
26.237,-0.90,0.45,-0.75,1.25
26.247,-0.72,0.68,-0.50,1.11
26.257,-0.78,0.90,-0.31,1.22
26.267,-1.00,1.23,-0.37,1.63
26.277,-0.99,1.38,-0.45,1.76
26.287,-0.92,1.40,-0.35,1.72
26.297,-0.99,1.44,-0.12,1.76
26.307,-1.29,1.38,-0.07,1.89
26.317,-1.66,1.20,-0.19,2.06
26.327,-1.60,1.08,-0.17,1.93
26.337,-1.30,0.94,-0.00,1.60
26.347,-1.03,0.79,0.11,1.30
26.357,-0.78,0.61,0.18,1.01
26.367,-0.58,0.31,0.30,0.72
26.377,-0.47,-0.02,0.47,0.67
26.387,-0.26,-0.23,0.60,0.70
26.397,-0.12,-0.29,0.67,0.74
26.407,0.14,-0.21,0.65,0.70
26.417,0.18,0.04,0.62,0.65
26.427,-0.08,0.27,0.62,0.68
26.437,-0.40,0.41,0.68,0.89
26.447,-0.55,0.40,0.78,1.04
26.457,-0.63,0.31,0.79,1.05
26.467,-0.56,0.25,0.78,1.00
26.477,-0.65,0.17,0.71,0.98
26.487,-0.57,-0.02,0.72,0.92
26.497,-0.32,0.05,0.78,0.84
26.507,-0.12,0.11,0.77,0.79
26.517,-0.14,0.18,0.65,0.69
26.527,-0.15,0.29,0.57,0.66
26.537,-0.23,0.34,0.49,0.64
26.547,-0.39,0.35,0.55,0.76
26.557,-0.50,0.42,0.62,0.90
26.567,-0.48,0.60,0.74,1.07
26.577,-0.48,0.66,0.83,1.16
26.587,-0.42,0.60,0.95,1.20
26.597,-0.25,0.56,1.18,1.33
26.609,-0.08,0.48,1.28,1.37
26.617,0.18,0.52,1.04,1.18
26.627,0.66,0.40,0.87,1.16
26.637,1.08,0.51,0.68,1.38
26.647,1.20,0.77,0.21,1.44
26.658,1.45,0.77,0.08,1.64
26.668,1.46,0.76,0.05,1.65
26.678,1.25,1.08,-0.04,1.66
26.688,0.82,1.27,-0.22,1.53
26.698,0.49,1.10,-0.28,1.24
26.707,0.49,0.83,-0.32,1.01
26.718,0.66,0.81,-0.50,1.16
26.727,0.86,1.06,-0.87,1.62
26.738,1.29,0.74,-0.91,1.74
26.747,1.11,0.67,-1.07,1.69
26.757,0.44,0.93,-1.57,1.88
26.768,0.15,0.66,-1.81,1.93
26.778,0.09,0.22,-1.78,1.79
26.788,0.11,-0.03,-1.83,1.84
26.798,-0.05,-0.27,-1.98,2.00
26.808,-0.11,-0.48,-2.04,2.10
26.818,0.15,-0.45,-2.05,2.11
26.828,0.71,-0.24,-1.85,2.00
26.838,0.97,0.09,-1.68,1.95
26.848,1.01,0.26,-1.55,1.86
26.858,0.80,0.28,-1.37,1.61
26.868,0.63,0.34,-1.17,1.37
26.878,0.53,0.42,-1.03,1.23
26.888,0.40,0.40,-0.91,1.07
26.898,0.25,0.26,-0.83,0.91
26.908,0.13,0.07,-0.79,0.80
26.918,-0.09,-0.13,-0.72,0.73
26.928,-0.28,-0.32,-0.69,0.81
26.938,-0.40,-0.38,-0.72,0.91
26.948,-0.60,-0.40,-0.83,1.10
26.958,-0.64,-0.35,-0.94,1.18
26.968,-0.51,-0.30,-1.00,1.16
26.978,-0.44,-0.27,-1.00,1.12
26.988,-0.52,-0.37,-0.99,1.18
26.998,-0.44,-0.53,-0.93,1.16
27.008,-0.26,-0.67,-0.84,1.11
27.018,-0.07,-0.67,-0.82,1.06
27.028,0.03,-0.50,-0.84,0.98
27.038,-0.11,-0.26,-0.86,0.91
27.048,-0.36,-0.06,-0.81,0.89
27.058,-0.57,0.05,-0.76,0.96
27.068,-0.60,0.01,-0.65,0.89
27.078,-0.54,-0.13,-0.62,0.83
27.088,-0.33,-0.22,-0.46,0.61
27.098,-0.04,-0.25,-0.37,0.45
27.108,0.04,-0.20,-0.40,0.44
27.118,-0.02,-0.14,-0.37,0.39
27.128,-0.15,-0.09,-0.32,0.37
27.138,-0.30,-0.13,-0.27,0.42
27.148,-0.47,-0.24,-0.22,0.58
27.158,-0.53,-0.29,-0.14,0.62
27.168,-0.60,-0.26,-0.08,0.66
27.178,-0.65,-0.30,-0.03,0.72
27.188,-0.68,-0.40,0.00,0.78
27.198,-0.59,-0.50,0.07,0.78
27.208,-0.40,-0.63,0.13,0.76
27.218,-0.27,-0.72,0.18,0.79
27.228,-0.21,-0.76,0.30,0.84
27.238,-0.27,-0.82,0.35,0.93
27.248,-0.38,-0.49,0.16,0.64
27.258,-0.28,-0.92,0.36,1.03
27.268,-0.02,-1.13,0.56,1.26
27.278,-0.61,-0.91,0.34,1.14
27.288,-0.64,-1.00,0.30,1.23
27.298,-0.62,-0.96,0.22,1.16
27.308,-0.54,-0.74,0.19,0.94
27.318,-0.32,-0.77,0.13,0.84
27.328,-0.09,-0.78,0.26,0.82
