time,ax,ay,az,atotal
0.000,0.04,-0.56,0.13,0.57
0.010,0.17,-0.42,0.14,0.47
0.020,0.12,-0.20,0.04,0.24
0.030,0.03,-0.02,-0.12,0.13
0.040,0.00,0.07,-0.23,0.24
0.050,-0.03,0.03,-0.21,0.22
0.060,-0.06,-0.11,-0.10,0.16
0.070,-0.11,-0.27,0.10,0.31
0.080,-0.16,-0.37,0.30,0.51
0.090,-0.23,-0.34,0.51,0.66
0.100,-0.24,-0.16,0.74,0.79
0.110,-0.26,0.05,0.93,0.97
0.120,-0.27,0.19,1.06,1.11
0.130,-0.29,0.23,1.02,1.08
0.140,-0.37,0.30,0.74,0.88
0.150,-0.40,0.28,0.41,0.64
0.160,-0.31,0.44,0.24,0.58
0.170,-0.22,0.72,0.11,0.76
0.180,-0.13,0.93,0.10,0.95
0.190,-0.05,1.01,0.12,1.01
0.200,-0.09,0.90,0.18,0.93
0.210,-0.24,0.76,0.21,0.82
0.220,-0.36,0.56,0.20,0.69
0.230,-0.35,0.37,0.24,0.56
0.240,-0.17,0.20,0.33,0.42
0.250,0.07,0.10,0.42,0.44
0.260,0.23,0.01,0.49,0.54
0.270,0.25,-0.06,0.53,0.59
0.280,0.20,-0.10,0.55,0.60
0.290,0.09,-0.05,0.55,0.56
0.300,-0.06,0.04,0.63,0.63
0.310,-0.17,0.12,0.80,0.83
0.320,-0.27,0.13,0.93,0.97
0.330,-0.39,0.03,1.04,1.11
0.340,-0.47,-0.09,1.06,1.16
0.350,-0.60,-0.18,1.04,1.21
0.360,-0.71,-0.27,1.10,1.34
0.370,-0.85,-0.32,1.18,1.49
0.380,-0.86,-0.34,1.23,1.54
0.390,-0.77,-0.37,1.26,1.52
0.401,-0.71,-0.40,1.24,1.48
0.410,-0.70,-0.45,1.08,1.36
0.420,-0.68,-0.44,0.92,1.22
0.430,-0.62,-0.30,0.82,1.07
0.440,-0.54,0.01,0.88,1.03
0.450,-0.55,0.40,0.99,1.20
0.461,-0.50,0.68,1.11,1.40
0.471,-0.57,0.73,1.14,1.47
0.481,-0.48,0.58,1.19,1.41
0.491,-0.41,0.28,1.10,1.21
0.500,-0.48,-0.08,1.09,1.19
0.511,-0.49,-0.30,1.24,1.37
0.521,-0.29,-0.44,1.44,1.54
0.531,-0.20,-0.54,1.60,1.70
0.540,-0.17,-0.54,1.70,1.79
0.550,-0.20,-0.47,1.79,1.86
0.561,-0.26,-0.40,1.84,1.90
0.570,-0.39,-0.35,1.83,1.90
0.580,-0.56,-0.27,1.76,1.87
0.591,-0.74,-0.13,1.77,1.93
0.600,-0.88,0.07,1.85,2.05
0.610,-0.71,0.19,1.92,2.06
0.621,-0.99,0.10,1.75,2.01
0.631,-1.28,0.03,1.82,2.23
0.641,-1.06,-0.04,1.81,2.10
0.651,-1.00,-0.22,1.61,1.91
0.661,-1.06,-0.35,1.63,1.97
0.670,-0.94,-0.39,1.94,2.19
0.680,-0.73,-0.40,2.14,2.29
0.691,-0.54,-0.44,2.03,2.15
0.701,-0.29,-0.37,1.90,1.96
0.711,0.15,-0.15,1.88,1.90
0.721,0.62,0.09,1.84,1.94
0.731,0.96,0.30,1.76,2.03
0.741,1.10,0.40,1.64,2.01
0.751,1.19,0.43,1.54,2.00
0.761,1.15,0.50,1.55,2.00
0.771,1.14,0.56,1.74,2.16
0.781,1.17,0.58,2.12,2.49
0.791,1.22,0.65,2.57,2.92
0.801,1.29,0.63,2.83,3.18
0.811,1.49,0.56,2.97,3.37
0.821,2.08,0.43,2.67,3.41
0.831,3.10,0.35,2.12,3.77
0.841,3.98,0.43,1.54,4.29
0.851,4.21,0.71,0.83,4.35
0.861,3.43,1.23,0.14,3.64
0.871,1.59,1.76,-0.10,2.37
0.881,-0.35,2.23,0.12,2.26
0.891,-1.74,2.56,0.70,3.17
0.901,-2.53,2.59,1.14,3.79
0.911,-2.90,2.21,1.22,3.85
0.921,-2.91,1.50,0.90,3.39
0.931,-2.73,0.53,0.30,2.80
0.941,-2.53,-0.55,-0.47,2.63
0.951,-2.23,-1.62,-1.29,3.04
0.961,-1.57,-2.55,-2.07,3.64
0.971,-0.60,-3.19,-2.54,4.12
0.981,0.45,-3.37,-2.64,4.31
0.991,1.44,-3.03,-2.48,4.17
1.001,2.10,-2.27,-2.15,3.77
1.011,2.21,-1.21,-1.80,3.09
1.021,1.73,-0.02,-1.37,2.21
1.031,0.80,1.08,-0.94,1.64
1.041,-0.34,1.92,-0.55,2.03
1.051,-1.36,2.31,-0.25,2.69
1.061,-2.04,2.14,-0.01,2.96
1.071,-2.15,1.55,0.05,2.65
1.081,-1.78,0.78,0.10,1.94
1.091,-1.11,0.10,0.15,1.12
1.101,-0.56,-0.46,0.15,0.74
1.111,-0.18,-0.78,0.13,0.81
1.121,-0.15,-0.90,0.11,0.92
1.131,-0.46,-0.86,0.11,0.98
1.141,-0.90,-0.74,0.11,1.17
1.151,-1.28,-0.60,0.12,1.42
1.161,-1.55,-0.57,0.20,1.66
1.171,-1.57,-0.58,0.33,1.71
1.181,-1.50,-0.61,0.48,1.69
1.191,-1.30,-0.67,0.68,1.61
1.201,-0.98,-0.80,0.82,1.51
1.211,-0.79,-0.95,0.84,1.50
1.221,-0.79,-0.99,0.82,1.51
1.231,-0.92,-0.90,0.85,1.54
1.241,-1.08,-0.76,0.83,1.55
1.251,-1.21,-0.56,0.84,1.58
1.261,-1.21,-0.46,0.90,1.58
1.271,-1.03,-0.46,1.00,1.51
1.281,-0.76,-0.49,1.11,1.43
1.291,-0.38,-0.44,1.18,1.31
1.301,0.14,-0.33,1.23,1.28
1.311,0.70,-0.22,1.38,1.56
1.321,1.19,-0.09,1.63,2.02
1.331,1.37,0.05,1.82,2.28
1.341,1.19,0.13,1.76,2.13
1.351,0.80,0.09,1.55,1.75
1.361,0.53,-0.02,1.38,1.48
1.371,0.48,-0.10,1.35,1.44
1.381,0.57,-0.07,1.63,1.73
1.391,0.75,-0.07,2.03,2.16
1.401,0.75,-0.38,2.36,2.50
1.411,0.75,-0.91,2.68,2.93
1.421,0.82,-1.51,2.89,3.36
1.431,0.79,-2.01,3.00,3.70
1.441,0.72,-2.23,3.19,3.96
1.451,0.53,-2.11,3.26,3.92
1.461,0.10,-1.55,2.90,3.29
1.471,-0.12,-0.28,1.69,1.71
1.481,0.54,1.19,0.40,1.37
1.491,1.66,2.34,-0.57,2.93
1.501,2.34,2.72,-1.60,3.93
1.511,2.32,2.16,-2.95,4.33
1.521,1.83,1.15,-4.33,4.84
1.531,1.18,0.05,-5.12,5.25
1.541,0.40,-0.74,-5.45,5.52
1.551,-0.08,-0.82,-5.81,5.87
1.561,-0.01,-0.22,-6.09,6.10
1.571,0.56,0.78,-6.00,6.08
1.581,0.71,1.66,-5.45,5.74
1.591,0.12,2.24,-4.34,4.89
1.601,-0.52,2.43,-2.71,3.68
1.611,-0.95,2.01,-1.28,2.57
1.621,-0.85,1.12,-0.35,1.45
1.631,-0.35,0.05,0.25,0.43
1.641,0.10,-0.94,0.74,1.20
1.651,0.48,-1.73,1.16,2.13
1.661,0.58,-2.33,1.18,2.68
1.671,0.40,-2.70,0.74,2.83
1.681,0.01,-2.57,0.22,2.58
1.691,-0.59,-1.90,-0.16,2.00
1.701,-1.27,-0.94,-0.26,1.60
1.711,-1.88,0.06,-0.03,1.89
1.721,-2.28,0.90,0.28,2.47
1.731,-2.39,1.44,0.51,2.84
1.741,-2.28,1.67,0.65,2.90
1.751,-2.00,1.68,0.67,2.69
1.761,-1.68,1.47,0.53,2.29
1.771,-1.35,1.13,0.39,1.81
1.781,-1.16,0.73,0.40,1.43
1.791,-1.11,0.41,0.59,1.33
1.801,-1.39,0.16,0.79,1.60
1.811,-2.05,-0.02,0.83,2.21
1.821,-2.32,-0.06,0.82,2.46
1.831,-2.33,0.04,0.57,2.40
1.841,-2.26,0.32,0.27,2.30
1.851,-1.80,0.66,0.21,1.93
1.861,-1.00,0.94,0.20,1.39
1.871,-0.20,1.05,0.27,1.11
1.881,0.45,0.98,0.37,1.14
1.891,0.90,0.80,0.65,1.37
1.901,1.16,0.54,1.11,1.69
1.911,1.11,0.32,1.39,1.80
1.921,0.88,0.24,1.33,1.62
1.931,0.81,0.28,1.34,1.59
1.941,0.94,0.32,1.74,2.01
1.951,0.93,0.19,2.25,2.44
1.961,0.77,-0.07,2.22,2.35
1.971,0.77,-0.12,1.49,1.68
1.981,1.12,0.53,1.04,1.62
1.991,1.49,1.72,1.52,2.73
2.001,1.74,2.84,2.41,4.11
2.012,1.43,3.52,3.12,4.92
2.021,0.47,3.47,3.52,4.96
2.031,-0.58,2.72,3.64,4.59
2.041,-1.22,1.31,3.34,3.78
2.052,-0.71,-0.50,2.07,2.24
2.061,1.11,-1.97,-0.14,2.26
2.072,2.78,-2.50,-1.87,4.18
2.082,3.84,-2.16,-2.97,5.32
2.092,4.15,-1.35,-3.56,5.63
2.102,3.09,-0.27,-3.44,4.63
2.112,1.24,0.63,-3.38,3.65
2.121,-0.46,0.90,-3.46,3.61
2.132,-1.57,0.55,-3.59,3.96
2.142,-1.92,-0.08,-3.64,4.11
2.152,-1.57,-0.60,-3.25,3.65
2.161,-0.70,-0.82,-2.39,2.63
2.172,0.20,-0.84,-1.37,1.62
2.182,1.08,-0.71,-0.57,1.42
2.192,1.79,-0.48,-0.21,1.86
2.202,2.02,-0.14,-0.31,2.05
2.212,2.03,0.28,-0.55,2.12
2.222,1.79,0.76,-0.66,2.05
2.232,1.12,1.19,-0.46,1.69
2.242,0.08,1.38,-0.18,1.40
2.252,-1.14,1.26,-0.08,1.70
2.262,-2.17,0.86,-0.16,2.34
2.272,-2.96,0.38,-0.17,2.99
2.282,-3.33,-0.09,-0.04,3.34
2.292,-3.28,-0.54,0.16,3.33
2.302,-2.93,-0.89,0.21,3.07
2.312,-2.50,-1.15,0.28,2.76
2.322,-2.15,-1.36,0.44,2.58
2.332,-2.00,-1.53,0.62,2.59
2.342,-2.00,-1.62,0.68,2.66
2.352,-2.14,-1.63,0.56,2.75
2.362,-2.43,-1.54,0.17,2.89
2.372,-2.68,-1.41,-0.30,3.04
2.382,-2.73,-1.23,-0.64,3.06
2.392,-2.56,-1.06,-0.64,2.84
2.402,-2.30,-0.89,-0.31,2.48
2.412,-1.98,-0.75,-0.02,2.12
2.422,-1.57,-0.66,0.14,1.71
2.432,-0.93,-0.51,0.27,1.09
2.442,-0.09,-0.32,0.46,0.57
2.452,0.65,-0.04,0.81,1.05
2.462,1.03,0.20,1.26,1.64
2.472,1.17,0.23,1.23,1.71
2.482,1.17,0.10,1.19,1.67
2.492,1.26,-0.25,1.35,1.86
2.502,1.47,-0.66,1.57,2.25
2.512,1.99,-0.85,1.95,2.91
2.522,2.42,-0.69,2.19,3.34
2.532,2.12,-0.46,2.54,3.34
2.542,1.58,-0.44,3.00,3.42
2.552,0.93,-0.78,3.30,3.52
2.562,0.45,-1.34,3.66,3.92
2.572,0.44,-1.75,4.14,4.52
2.582,0.74,-1.80,4.31,4.73
2.592,1.24,-1.28,3.90,4.29
2.602,2.39,-0.03,2.49,3.46
2.612,3.73,1.08,1.13,4.04
2.622,4.31,1.91,-0.24,4.72
2.632,3.77,2.22,-1.55,4.65
2.642,2.79,1.83,-3.19,4.61
2.652,1.94,1.05,-4.05,4.61
2.662,0.84,-0.09,-4.39,4.47
2.672,-0.64,-1.18,-4.83,5.02
2.682,-1.67,-1.54,-5.02,5.51
2.692,-1.66,-1.01,-4.96,5.33
2.702,-0.97,-0.06,-4.85,4.95
2.712,-0.45,0.88,-4.60,4.70
2.722,-0.52,1.41,-3.64,3.93
2.732,-0.77,1.45,-2.05,2.63
2.742,-0.82,1.17,-0.52,1.52
2.752,-0.38,0.66,0.59,0.96
2.762,-0.12,0.02,1.14,1.14
2.772,0.42,-0.57,1.45,1.62
2.782,0.66,-1.19,1.38,1.94
2.792,0.39,-1.62,0.90,1.89
2.802,-0.11,-1.56,0.54,1.66
2.812,-0.60,-1.10,0.04,1.25
2.822,-1.11,-0.44,-0.35,1.24
2.832,-1.39,0.22,-0.40,1.46
2.842,-1.68,0.76,-0.35,1.88
2.852,-2.08,1.22,-0.16,2.42
2.862,-2.28,1.50,0.14,2.73
2.872,-2.32,1.48,0.26,2.76
2.882,-2.18,1.21,0.28,2.51
2.892,-2.04,0.79,0.30,2.21
2.902,-2.12,0.31,0.27,2.16
2.912,-2.47,-0.12,0.29,2.49
2.922,-2.78,-0.44,0.34,2.84
2.932,-2.88,-0.58,0.28,2.95
2.942,-2.89,-0.53,0.19,2.94
2.952,-2.61,-0.26,0.03,2.62
2.962,-2.06,0.18,-0.17,2.07
2.972,-1.45,0.75,-0.23,1.64
2.982,-0.81,1.29,-0.22,1.54
2.992,-0.31,1.66,-0.20,1.70
3.002,0.10,1.79,-0.04,1.79
3.012,0.41,1.71,0.37,1.80
3.022,0.56,1.52,0.83,1.82
3.032,0.54,1.27,1.07,1.74
3.042,0.66,1.05,1.11,1.66
3.052,0.94,1.04,1.13,1.80
3.062,1.17,1.23,1.46,2.24
3.072,1.28,1.38,2.18,2.88
3.082,1.02,1.04,2.42,2.82
3.092,0.85,0.51,1.84,2.09
3.102,1.19,0.33,1.26,1.76
3.112,2.06,0.62,1.20,2.47
3.122,2.60,1.19,1.96,3.46
3.132,2.40,1.63,3.08,4.23
3.142,1.17,1.66,3.66,4.19
3.152,0.18,1.45,3.82,4.09
3.162,0.29,0.55,3.36,3.41
3.172,2.14,-1.07,1.93,3.08
3.182,4.69,-2.60,0.33,5.37
3.192,6.06,-3.53,-1.90,7.27
3.202,5.95,-3.55,-4.60,8.32
3.212,4.47,-2.35,-5.52,7.49
3.222,1.98,-0.27,-4.98,5.36
3.232,-0.78,1.54,-4.55,4.86
3.242,-2.70,2.55,-4.20,5.60
3.252,-3.27,2.75,-3.12,5.29
3.262,-2.86,2.21,-1.61,3.95
3.272,-1.71,1.10,-0.34,2.06
3.282,-0.25,-0.07,0.32,0.41
3.292,0.94,-0.98,0.55,1.46
3.302,1.90,-1.54,0.64,2.53
3.312,2.54,-1.79,0.52,3.15
3.322,2.17,-1.62,-0.16,2.71
3.332,1.10,-1.02,-0.48,1.57
3.342,0.34,-0.28,-0.57,0.72
3.352,-1.08,0.40,-0.81,1.41
3.363,-2.57,0.91,-0.68,2.81
3.372,-3.52,1.05,-0.39,3.69
3.382,-4.06,0.77,-0.32,4.14
3.392,-4.17,0.17,-0.39,4.19
3.402,-3.90,-0.58,-0.42,3.96
3.412,-3.39,-1.27,-0.45,3.65
3.422,-2.82,-1.83,-0.50,3.39
3.432,-2.57,-2.13,-0.52,3.38
3.442,-2.60,-2.04,-0.55,3.35
3.453,-2.61,-1.75,-0.55,3.19
3.463,-2.67,-1.33,-0.64,3.05
3.473,-3.21,-0.91,-0.40,3.36
3.483,-3.22,-0.70,0.03,3.30
3.493,-2.49,-0.86,0.24,2.65
3.502,-2.17,-1.10,0.49,2.48
3.513,-1.65,-1.23,0.72,2.18
3.522,-0.85,-1.19,0.85,1.69
3.533,0.11,-1.01,0.99,1.41
3.542,0.98,-0.66,1.33,1.78
3.552,1.57,-0.26,1.79,2.39
3.562,1.72,0.03,2.09,2.71
3.573,1.32,-0.02,2.20,2.56
3.583,0.85,-0.38,2.09,2.29
3.593,0.98,-0.72,1.93,2.28
3.603,1.62,-0.69,1.92,2.61
3.613,2.14,-0.28,2.17,3.06
3.622,2.32,0.11,2.74,3.60
3.633,2.28,-0.11,3.17,3.91
3.643,2.07,-0.93,3.36,4.05
3.653,1.84,-1.86,3.65,4.49
3.663,1.61,-2.39,4.24,5.13
3.673,1.21,-2.36,4.53,5.25
3.683,0.93,-1.50,3.57,3.98
3.693,1.91,0.24,1.31,2.32
3.703,4.04,1.92,-0.84,4.55
3.713,4.95,2.99,-2.31,6.23
3.723,3.63,3.04,-3.32,5.78
3.733,2.21,2.27,-4.31,5.35
3.743,1.15,0.93,-5.70,5.89
3.753,0.56,-0.47,-6.57,6.61
3.763,0.28,-1.03,-6.26,6.35
3.773,0.29,-0.63,-5.54,5.58
3.783,0.67,0.33,-4.79,4.85
3.793,1.01,1.27,-3.38,3.75
3.803,0.84,1.75,-1.49,2.45
3.813,0.41,1.65,-0.07,1.70
3.823,0.08,1.17,0.61,1.32
3.833,-0.07,0.50,0.75,0.91
3.843,-1.10,-0.12,0.50,1.21
3.853,-0.46,-0.50,0.60,0.91
3.863,-0.70,-1.06,0.12,1.28
3.873,-1.61,-1.54,-0.71,2.34
3.883,-1.63,-1.62,-0.80,2.43
3.893,-1.88,-1.55,-0.71,2.54
3.903,-2.17,-1.23,-0.86,2.64
3.913,-2.64,-0.72,-0.70,2.83
3.923,-2.95,-0.11,-0.31,2.97
3.933,-3.12,0.43,-0.05,3.15
3.943,-3.21,0.81,0.08,3.31
3.953,-3.06,0.91,0.04,3.19
3.963,-2.89,0.81,-0.11,3.00
3.973,-2.66,0.57,-0.21,2.73
3.983,-2.36,0.33,-0.22,2.39
3.990,-2.36,0.34,-0.23,2.39
4.000,-2.01,0.25,-0.02,2.02
4.010,-1.99,0.31,0.33,2.04
4.020,-2.11,0.47,0.70,2.28
4.030,-2.11,0.65,1.14,2.48
4.040,-2.13,0.72,1.39,2.64
4.050,-2.25,0.61,1.41,2.73
4.060,-2.06,0.28,1.11,2.36
4.070,-1.51,-0.03,0.76,1.69
4.080,-0.81,-0.13,0.60,1.01
4.090,-0.00,0.03,0.79,0.79
4.100,0.91,0.32,0.89,1.31
4.110,1.82,0.88,0.88,2.21
4.120,2.31,1.75,1.17,3.12
4.130,2.14,2.50,1.68,3.70
4.140,1.21,2.60,1.72,3.34
4.150,0.39,2.00,0.79,2.19
4.160,0.32,1.30,-0.13,1.35
4.170,1.23,1.16,0.27,1.71
4.180,2.50,1.67,1.90,3.56
4.190,2.69,2.21,3.69,5.07
4.200,1.66,2.30,4.79,5.57
4.210,0.39,1.63,5.00,5.28
4.220,-0.91,-0.05,4.51,4.60
4.230,-0.70,-2.49,2.74,3.76
4.240,1.58,-4.40,-0.26,4.69
4.250,4.16,-4.86,-2.87,7.01
4.260,6.11,-3.98,-4.75,8.70
4.270,6.65,-2.34,-5.83,9.15
4.280,5.30,-0.15,-5.57,7.69
4.290,2.88,1.98,-5.09,6.17
4.300,0.37,3.31,-4.58,5.66
4.310,-1.55,3.66,-3.84,5.53
4.321,-1.97,3.06,-2.61,4.47
4.330,-1.30,1.76,-1.17,2.48
4.340,-0.36,0.10,-0.23,0.44
4.354,0.95,-2.21,-0.12,2.41
4.364,1.62,-1.93,-0.25,2.53
4.374,2.09,-0.86,-0.38,2.29
4.384,1.81,0.49,-0.72,2.01
4.394,0.06,1.64,-0.81,1.83
4.404,-0.88,2.23,-0.29,2.41
4.414,-2.49,2.25,-0.41,3.38
4.424,-4.08,1.85,-0.46,4.51
4.434,-4.57,1.25,-0.35,4.75
4.444,-4.86,0.45,-0.37,4.89
4.454,-5.07,-0.26,-0.35,5.09
4.464,-4.80,-0.81,-0.08,4.87
4.474,-4.04,-1.25,0.24,4.24
4.484,-3.35,-1.58,0.40,3.73
4.494,-2.91,-1.78,0.45,3.44
4.504,-1.92,-1.89,0.48,2.74
4.514,-1.46,-1.73,0.26,2.28
4.525,-1.51,-1.37,0.25,2.05
4.534,-1.40,-0.93,0.49,1.75
4.544,-1.31,-0.54,0.90,1.68
4.554,-1.27,-0.34,1.26,1.82
4.564,-1.09,-0.26,1.38,1.78
4.574,-0.66,-0.19,1.49,1.64
4.584,-0.12,-0.05,1.63,1.64
4.594,0.36,0.18,1.75,1.79
4.604,0.75,0.33,2.00,2.16
4.614,0.87,0.21,2.22,2.40
4.624,0.80,-0.29,2.32,2.47
4.634,1.10,-0.97,1.71,2.25
4.644,1.40,-1.41,1.36,2.40
4.654,1.52,-1.39,2.07,2.92
4.664,1.41,-1.17,2.92,3.45
4.675,1.26,-0.96,3.48,3.83
4.684,1.15,-0.82,4.06,4.30
4.695,1.21,-0.81,4.69,4.91
4.704,1.23,-0.80,4.86,5.08
4.715,1.05,-0.73,4.20,4.39
4.725,1.36,0.11,1.81,2.27
4.735,2.94,1.56,-0.94,3.46
4.744,4.82,2.87,-2.04,5.97
4.755,4.78,3.57,-2.60,6.51
4.765,3.54,3.22,-3.92,6.19
4.775,2.06,1.92,-5.50,6.18
4.784,1.00,0.05,-6.44,6.52
4.795,0.23,-1.88,-6.59,6.86
4.805,-0.20,-3.07,-6.36,7.06
4.815,0.26,-2.77,-5.83,6.46
4.825,0.73,-1.20,-4.63,4.84
4.835,1.03,0.73,-2.87,3.14
4.845,1.14,2.15,-0.87,2.58
4.855,1.14,2.67,0.51,2.95
4.865,1.20,2.40,1.28,2.98
4.875,0.80,1.43,1.46,2.20
4.885,0.15,0.47,1.67,1.74
4.895,0.21,-0.39,1.58,1.64
4.905,-0.97,-1.36,0.77,1.84
4.915,-1.86,-1.99,0.29,2.74
4.925,-2.26,-2.21,-0.19,3.16
4.935,-2.84,-2.03,-0.66,3.55
4.945,-3.21,-1.42,-0.69,3.58
4.955,-3.36,-0.56,-0.47,3.44
4.965,-3.32,0.31,-0.30,3.35
4.975,-3.29,0.98,-0.12,3.44
4.985,-3.13,1.32,-0.01,3.40
4.995,-3.06,1.34,-0.07,3.34
5.005,-3.06,1.22,-0.07,3.30
5.015,-2.91,1.05,0.09,3.10
5.025,-2.78,0.83,0.35,2.93
5.035,-2.64,0.66,0.69,2.81
5.045,-2.47,0.60,0.93,2.71
5.055,-2.31,0.70,1.03,2.62
5.065,-2.11,0.91,1.00,2.51
5.075,-1.83,1.16,0.93,2.35
5.085,-1.22,1.35,0.91,2.03
5.095,-0.35,1.35,0.89,1.66
5.105,0.57,1.20,0.96,1.64
5.115,1.23,0.92,0.98,1.82
5.125,1.64,0.69,0.84,1.97
5.135,1.86,0.72,0.86,2.17
5.145,1.77,0.94,1.25,2.36
5.155,1.22,1.19,1.78,2.47
5.165,0.36,1.09,1.89,2.22
5.175,-0.02,0.85,1.17,1.44
5.185,0.54,0.80,0.50,1.09
5.195,1.50,1.02,0.68,1.94
5.205,2.44,1.42,1.69,3.29
5.215,2.61,1.74,2.89,4.26
5.225,1.72,1.71,3.62,4.36
5.235,0.03,1.22,3.82,4.02
5.245,-0.76,-0.08,3.20,3.29
5.255,0.99,-1.95,0.61,2.27
5.265,4.10,-3.59,-2.13,5.85
5.275,6.19,-4.62,-4.80,9.09
5.285,6.62,-5.08,-6.93,10.85
5.295,5.30,-4.13,-6.84,9.58
5.305,2.92,-1.83,-6.22,7.11
5.315,0.55,0.87,-5.22,5.32
5.325,-1.18,3.19,-3.64,4.98
5.335,-1.86,4.34,-1.96,5.12
5.345,-1.51,4.12,-0.71,4.44
5.355,-0.57,2.76,-0.01,2.82
5.365,0.69,0.73,0.06,1.00
5.375,1.85,-1.34,-0.42,2.33
5.385,2.67,-2.70,-0.95,3.91
5.395,2.69,-2.85,-1.31,4.13
5.405,1.85,-1.99,-1.11,2.93
5.415,0.52,-0.73,-0.94,1.30
5.425,-1.66,0.56,-0.70,1.89
5.435,-2.77,1.52,-0.16,3.16
5.445,-3.76,1.85,-0.27,4.20
5.455,-5.00,1.79,-0.39,5.32
5.465,-5.58,1.40,-0.15,5.75
5.475,-5.33,0.66,-0.00,5.37
5.485,-4.84,-0.17,0.13,4.85
5.495,-3.89,-1.01,0.36,4.04
5.505,-2.83,-1.84,0.47,3.41
5.515,-2.18,-2.53,0.37,3.36
5.525,-1.81,-2.89,0.29,3.43
5.535,-1.62,-2.73,0.44,3.21
5.545,-1.61,-2.17,0.77,2.81
5.555,-1.73,-1.54,1.08,2.56
5.565,-1.91,-0.98,1.40,2.56
5.575,-2.07,-0.58,1.53,2.64
5.585,-2.13,-0.33,1.36,2.55
5.595,-2.05,-0.26,0.93,2.27
5.605,-1.54,-0.22,0.36,1.60
5.615,-0.52,-0.09,0.07,0.53
5.625,0.64,0.10,0.42,0.77
5.635,1.46,0.15,1.02,1.79
5.645,1.88,0.05,1.33,2.30
5.655,2.13,-0.13,1.45,2.58
5.665,2.24,-0.15,1.75,2.84
5.675,2.00,-0.16,2.19,2.97
5.685,1.28,-0.57,2.71,3.05
5.695,0.81,-1.38,3.08,3.47
5.705,0.56,-2.26,3.59,4.28
5.715,0.47,-2.77,4.44,5.26
5.725,0.48,-2.85,4.99,5.77
5.735,0.36,-2.60,4.71,5.40
5.745,0.45,-1.72,3.02,3.50
5.755,2.03,0.41,-0.25,2.09
5.765,4.58,2.46,-2.70,5.86
5.775,5.31,3.85,-3.19,7.29
5.785,4.39,4.17,-3.39,6.94
5.795,3.10,3.15,-4.75,6.49
5.805,1.72,1.22,-6.23,6.58
5.815,0.93,-0.95,-7.01,7.14
5.825,0.23,-2.29,-6.83,7.21
5.835,0.39,-2.15,-6.23,6.61
5.845,1.52,-0.84,-5.64,5.90
5.855,2.30,0.94,-4.54,5.18
5.865,2.23,2.38,-2.32,4.00
5.875,1.59,2.97,-0.11,3.37
5.885,0.82,2.66,1.18,3.03
5.895,0.36,1.60,1.62,2.30
5.905,-0.31,0.26,1.36,1.41
5.915,-1.07,-0.67,1.07,1.65
5.925,-0.55,-1.33,1.15,1.84
5.935,-1.53,-2.00,0.59,2.59
5.945,-2.09,-2.42,0.17,3.20
5.955,-2.01,-2.43,-0.09,3.16
5.965,-2.36,-2.13,-0.42,3.21
5.975,-2.68,-1.49,-0.54,3.12
5.985,-3.00,-0.66,-0.46,3.11
5.996,-3.08,0.13,-0.36,3.10
6.005,-3.05,0.83,-0.30,3.17
6.015,-2.97,1.26,-0.27,3.24
6.025,-3.01,1.47,-0.26,3.36
6.036,-3.09,1.49,-0.08,3.43
6.045,-2.89,1.36,0.20,3.20
6.056,-2.55,1.10,0.45,2.81
6.065,-2.39,0.87,0.74,2.64
6.076,-2.32,0.72,1.10,2.67
6.085,-2.25,0.64,1.29,2.68
6.095,-2.25,0.57,1.19,2.61
6.106,-1.99,0.48,1.02,2.29
6.115,-1.25,0.30,0.93,1.58
6.126,-0.14,0.07,0.99,1.00
6.136,0.93,-0.07,1.08,1.43
6.146,1.54,0.08,1.00,1.84
6.156,1.71,0.65,0.90,2.04
6.166,1.72,1.44,1.12,2.51
6.176,1.34,1.99,1.73,2.96
6.185,0.56,1.96,2.08,2.91
6.196,-0.32,1.25,1.35,1.87
6.205,-0.19,0.58,0.23,0.65
6.216,1.02,0.57,0.09,1.17
6.226,2.50,1.22,1.14,3.01
6.236,3.41,2.14,2.83,4.92
6.246,2.74,2.75,4.41,5.87
6.256,1.01,2.80,5.18,5.98
6.266,-0.60,2.14,5.16,5.62
6.276,-1.91,0.57,4.45,4.88
6.286,-1.67,-1.67,2.67,3.57
6.296,0.64,-3.66,-0.16,3.72
6.306,3.83,-4.64,-2.99,6.72
6.316,6.34,-4.45,-5.07,9.26
6.326,6.93,-3.12,-6.28,9.86
6.336,5.61,-1.03,-6.40,8.57
6.346,3.14,0.94,-6.07,6.90
6.356,0.55,2.33,-5.51,6.01
6.366,-0.94,2.96,-4.31,5.32
6.376,-0.95,2.75,-2.72,3.98
6.386,-0.39,1.77,-1.29,2.23
6.396,0.09,0.33,-0.37,0.50
6.406,0.26,-1.05,-0.25,1.12
6.416,0.95,-1.93,-0.08,2.15
6.426,1.94,-2.12,-0.39,2.90
6.436,1.80,-1.55,-0.84,2.52
6.446,1.12,-0.47,-0.63,1.36
6.456,0.59,0.57,-0.20,0.84
6.466,-0.58,1.27,-0.31,1.43
6.476,-2.26,1.60,-0.38,2.80
6.486,-3.13,1.50,-0.12,3.47
6.496,-3.96,1.16,-0.16,4.13
6.506,-4.55,0.55,-0.30,4.59
6.516,-4.74,-0.22,-0.53,4.77
6.526,-4.48,-0.86,-0.60,4.60
6.536,-3.73,-1.30,-0.45,3.98
6.546,-2.90,-1.62,-0.38,3.34
6.556,-2.22,-1.75,-0.23,2.83
6.566,-1.78,-1.70,-0.13,2.47
6.576,-1.83,-1.42,0.04,2.31
6.586,-2.27,-1.03,0.56,2.56
6.596,-2.47,-0.85,0.70,2.70
6.606,-2.52,-0.88,0.62,2.74
6.616,-2.56,-0.87,0.58,2.77
6.626,-2.31,-0.72,0.60,2.50
6.636,-1.76,-0.47,0.73,1.96
6.646,-1.07,-0.23,0.76,1.34
6.656,-0.26,-0.02,0.80,0.84
6.666,0.45,0.11,0.97,1.08
6.676,0.86,-0.00,1.21,1.48
6.686,1.09,-0.38,1.30,1.74
6.696,1.51,-0.77,1.37,2.18
6.706,1.97,-0.80,1.67,2.71
6.716,2.26,-0.42,2.14,3.14
6.726,2.06,0.04,2.52,3.25
6.736,1.52,-0.16,2.84,3.22
6.746,1.21,-1.04,3.18,3.56
6.756,0.93,-2.01,3.75,4.36
6.766,0.62,-2.43,4.51,5.16
6.776,0.33,-2.40,4.64,5.23
6.786,0.14,-1.87,3.45,3.93
6.796,1.37,-0.28,0.73,1.57
6.806,3.64,1.43,-1.64,4.24
6.816,4.89,2.80,-3.09,6.42
6.826,4.17,3.40,-4.28,6.87
6.836,3.21,3.26,-5.38,7.06
6.846,2.38,2.30,-5.77,6.65
6.856,1.52,0.62,-5.78,6.00
6.866,0.92,-0.91,-5.57,5.72
6.876,0.97,-1.43,-5.24,5.52
6.886,1.76,-0.76,-4.86,5.22
6.896,2.18,0.62,-3.93,4.54
6.906,1.76,1.83,-2.33,3.44
6.916,1.22,2.37,-0.52,2.72
6.926,0.70,2.22,0.73,2.44
6.936,0.28,1.41,1.36,1.98
6.946,0.06,0.18,1.35,1.37
6.956,-1.08,-1.07,0.91,1.78
6.966,-1.67,-1.62,1.17,2.60
6.976,-1.23,-1.91,0.76,2.40
6.986,-2.39,-2.37,-0.14,3.37
6.996,-2.59,-2.40,-0.70,3.60
7.006,-2.57,-2.06,-0.77,3.38
7.016,-2.67,-1.50,-0.79,3.16
7.026,-2.70,-0.69,-0.58,2.84
7.036,-2.84,0.18,-0.29,2.86
7.046,-2.72,0.84,-0.08,2.85
7.056,-2.56,1.18,-0.05,2.82
7.066,-2.52,1.22,-0.13,2.80
7.076,-2.56,1.13,-0.11,2.80
7.086,-2.50,0.96,0.06,2.68
7.096,-2.41,0.75,0.32,2.55
7.106,-2.24,0.58,0.65,2.41
7.116,-2.11,0.54,0.77,2.31
7.126,-2.00,0.65,0.83,2.26
7.136,-1.83,0.87,0.87,2.20
7.146,-1.48,1.06,0.91,2.04
7.156,-0.95,1.10,1.00,1.76
7.166,-0.42,1.00,1.12,1.56
7.176,0.02,0.79,1.30,1.52
7.186,0.45,0.52,1.45,1.60
7.196,0.80,0.38,1.36,1.62
7.206,1.08,0.54,1.24,1.74
7.216,1.24,1.06,1.38,2.14
7.226,1.01,1.61,1.76,2.59
7.236,0.32,1.74,1.84,2.55
7.246,0.10,1.62,1.38,2.13
7.256,0.72,1.44,0.79,1.80
7.266,1.72,1.44,0.75,2.37
7.276,2.34,1.64,1.67,3.31
7.286,2.11,1.87,2.91,4.05
7.296,0.98,1.92,3.78,4.35
7.306,-0.46,1.61,4.19,4.51
7.316,-2.11,0.64,4.20,4.75
7.326,-1.79,-1.04,3.35,3.94
7.336,1.32,-2.91,0.42,3.22
7.346,5.11,-4.37,-2.80,7.29
7.356,7.39,-5.11,-5.61,10.59
7.366,7.19,-4.71,-7.57,11.46
7.376,5.21,-2.92,-7.74,9.77
7.386,2.47,-0.57,-6.72,7.19
7.396,0.17,1.56,-5.30,5.52
7.406,-0.96,2.99,-3.57,4.75
7.416,-1.14,3.34,-1.96,4.04
7.426,-0.62,2.66,-0.75,2.83
7.436,0.24,1.34,-0.08,1.37
7.446,1.27,-0.12,-0.04,1.28
7.456,1.71,-1.17,-0.37,2.10
7.466,2.11,-1.34,-0.57,2.56
7.476,2.03,-0.86,-0.83,2.35
7.486,1.33,-0.10,-1.00,1.67
7.496,-0.06,0.57,-1.11,1.25
7.506,-1.50,1.07,-0.92,2.06
7.516,-2.34,1.27,-0.70,2.76
7.526,-3.56,1.18,-0.63,3.80
7.536,-4.31,0.90,-0.23,4.41
7.547,-4.49,0.38,0.10,4.51
7.557,-4.43,-0.30,0.18,4.44
7.566,-4.07,-0.99,0.26,4.20
7.576,-3.33,-1.61,0.16,3.70
7.586,-2.60,-2.01,-0.11,3.29
7.597,-2.04,-2.09,-0.21,2.93
7.606,-1.87,-1.84,-0.12,2.63
7.617,-1.97,-1.47,-0.04,2.46
7.627,-2.34,-1.08,0.09,2.58
7.637,-2.05,-1.00,0.37,2.31
7.647,-1.89,-1.12,0.49,2.25
7.657,-2.02,-1.18,0.83,2.48
7.667,-1.90,-1.13,1.09,2.46
7.677,-1.47,-0.97,1.15,2.11
7.687,-0.94,-0.68,0.97,1.52
7.697,-0.30,-0.27,0.87,0.97
7.707,0.35,0.11,1.10,1.16
7.717,0.62,0.25,1.39,1.55
7.727,0.62,-0.06,1.40,1.53
7.737,0.80,-0.73,1.27,1.67
7.747,1.22,-1.28,1.42,2.26
7.757,1.47,-1.41,1.88,2.77
7.767,1.23,-1.39,2.52,3.13
7.777,0.91,-1.46,2.94,3.40
7.787,0.65,-1.56,3.26,3.68
7.797,0.43,-1.62,3.80,4.15
7.807,0.24,-1.61,4.26,4.56
7.817,0.06,-1.43,3.94,4.20
7.827,0.67,-0.38,2.01,2.16
7.837,2.98,1.37,-0.53,3.33
7.847,5.21,2.72,-2.33,6.32
7.857,5.74,3.42,-3.10,7.37
7.867,4.82,3.18,-4.16,7.12
7.877,3.27,2.24,-5.31,6.63
7.887,2.29,0.83,-5.95,6.43
7.897,0.91,-0.66,-6.27,6.37
7.907,-0.12,-1.46,-6.35,6.52
7.917,0.01,-1.28,-6.04,6.18
7.927,0.81,-0.39,-5.22,5.30
7.937,1.18,0.68,-3.64,3.88
7.947,0.77,1.48,-1.51,2.25
7.957,0.14,1.76,0.25,1.79
7.967,-0.17,1.62,1.22,2.04
7.977,-0.26,1.03,1.62,1.94
7.987,-0.76,0.29,1.73,1.91
7.993,-0.75,0.28,1.69,1.87
8.003,-0.05,-0.40,1.58,1.63
8.013,-0.09,-1.25,0.76,1.47
8.023,-0.68,-1.98,-0.03,2.10
8.033,-1.00,-2.26,-0.19,2.48
8.043,-1.36,-2.17,-0.21,2.57
8.053,-1.71,-1.70,-0.13,2.41
8.063,-2.07,-0.95,-0.10,2.28
8.073,-2.55,-0.07,-0.00,2.55
8.083,-2.55,0.75,0.20,2.67
8.093,-2.53,1.36,0.29,2.88
8.103,-2.48,1.59,0.23,2.95
8.113,-2.54,1.45,0.11,2.93
8.123,-2.70,1.12,0.07,2.92
8.133,-2.61,0.77,0.25,2.73
8.143,-2.40,0.46,0.59,2.51
8.153,-2.27,0.27,0.91,2.46
8.163,-2.16,0.24,1.10,2.43
8.173,-1.93,0.35,1.02,2.21
8.183,-1.60,0.53,0.60,1.79
8.193,-1.13,0.74,0.16,1.36
8.203,-0.20,0.87,-0.43,0.99
8.213,0.55,0.96,-0.29,1.14
8.223,1.14,0.96,0.14,1.50
8.233,1.35,0.86,0.68,1.74
8.243,1.30,0.69,1.07,1.82
8.253,1.17,0.66,1.18,1.78
8.263,0.94,0.92,1.29,1.84
8.273,0.48,1.44,1.64,2.24
8.283,-0.50,1.74,1.84,2.58
8.293,-1.38,1.61,1.55,2.63
8.303,-1.35,1.19,0.86,2.00
8.313,-0.37,0.82,0.56,1.06
8.323,0.87,0.83,1.18,1.69
8.333,1.57,1.21,2.45,3.15
8.343,1.18,1.54,3.74,4.22
8.357,-0.96,0.21,3.42,3.55
8.367,0.10,-1.68,0.97,1.94
8.377,3.02,-3.25,-1.66,4.74
8.387,6.10,-4.15,-3.48,8.16
8.397,7.93,-4.39,-4.61,10.17
8.407,7.82,-3.52,-4.49,9.68
8.417,5.54,-1.56,-4.16,7.10
8.427,2.24,0.56,-4.20,4.80
8.437,-0.85,2.25,-3.82,4.51
8.447,-2.62,3.13,-2.70,4.89
8.457,-2.93,3.02,-1.09,4.35
8.467,-2.24,2.08,0.12,3.06
8.477,-0.90,0.55,0.24,1.08
8.487,0.79,-1.00,-0.28,1.31
8.497,2.50,-2.10,-0.82,3.37
8.507,3.08,-2.40,-1.11,4.06
8.517,3.34,-1.69,-0.89,3.85
8.527,2.65,-0.51,-0.85,2.83
8.537,0.65,0.46,-1.15,1.40
8.547,-1.52,1.27,-0.86,2.15
8.557,-2.35,1.64,-0.31,2.88
8.567,-3.97,1.63,-0.33,4.30
8.577,-5.02,1.37,-0.15,5.21
8.587,-5.06,0.79,-0.12,5.12
8.597,-4.76,-0.01,-0.40,4.77
8.607,-4.12,-0.81,-0.54,4.23
8.617,-3.20,-1.57,-0.39,3.59
8.627,-2.32,-2.25,-0.64,3.29
8.637,-1.95,-2.54,-0.61,3.26
8.647,-1.80,-2.44,-0.37,3.06
8.657,-1.80,-2.00,-0.20,2.69
8.667,-1.85,-1.44,0.10,2.34
8.677,-1.92,-0.94,0.44,2.18
8.687,-2.03,-0.75,0.74,2.29
8.697,-1.91,-0.84,0.75,2.22
8.707,-1.78,-0.91,0.61,2.09
8.717,-1.49,-0.83,0.71,1.84
8.727,-0.94,-0.65,0.93,1.47
8.737,-0.20,-0.42,1.06,1.16
8.747,0.42,-0.23,1.20,1.29
8.757,0.90,-0.03,1.49,1.74
8.767,1.12,0.05,1.80,2.12
8.777,1.05,-0.08,1.86,2.14
8.787,1.04,-0.29,1.85,2.14
8.797,1.24,-0.38,2.08,2.45
8.807,1.40,-0.29,2.39,2.79
8.817,1.15,-0.36,2.72,2.98
8.827,0.99,-0.87,3.10,3.37
8.837,0.90,-1.57,3.32,3.78
8.848,0.69,-2.11,3.75,4.36
8.857,0.46,-2.33,4.14,4.77
8.867,0.21,-2.25,3.86,4.48
8.877,0.50,-1.38,2.41,2.82
8.887,2.05,0.27,0.36,2.10
8.897,4.31,1.82,-1.28,4.85
8.907,4.47,2.57,-2.76,5.85
8.917,3.65,2.69,-4.16,6.15
8.927,3.08,2.50,-4.93,6.33
8.937,1.91,1.62,-5.57,6.11
8.947,0.75,0.29,-6.05,6.11
8.957,-0.15,-0.78,-6.21,6.26
8.967,0.01,-0.86,-6.07,6.13
8.978,0.71,-0.12,-5.51,5.55
8.988,0.99,0.72,-4.44,4.61
8.997,0.70,1.30,-2.83,3.19
9.008,0.27,1.56,-1.16,1.96
9.017,0.21,1.42,0.12,1.44
9.027,-0.15,0.85,0.84,1.20
9.037,0.43,0.25,1.45,1.53
9.047,1.03,-0.64,1.06,1.61
9.057,-0.03,-1.61,0.13,1.62
9.067,-0.33,-1.79,-0.16,1.82
9.077,-0.53,-1.60,-0.14,1.69
9.087,-1.07,-1.22,-0.30,1.65
9.097,-1.49,-0.73,-0.32,1.69
9.107,-1.73,-0.25,-0.32,1.78
9.118,-1.79,0.11,-0.25,1.81
9.128,-1.91,0.35,0.02,1.94
9.138,-1.94,0.56,0.41,2.06
9.147,-1.83,0.58,0.61,2.02
9.158,-1.84,0.46,0.59,1.99
9.168,-1.76,0.34,0.60,1.89
9.178,-1.69,0.26,0.66,1.83
9.188,-1.72,0.32,0.74,1.90
9.198,-1.83,0.45,0.75,2.03
9.208,-2.13,0.59,0.73,2.33
9.218,-2.50,0.75,0.73,2.71
9.228,-2.67,0.85,0.68,2.89
9.238,-2.56,0.75,0.67,2.75
9.248,-2.29,0.55,0.61,2.43
9.258,-1.84,0.29,0.52,1.94
9.268,-1.27,0.01,0.51,1.37
9.278,-0.74,-0.10,0.80,1.09
9.288,-0.44,-0.13,1.04,1.14
9.298,-0.13,0.09,0.95,0.96
9.308,0.35,0.70,0.78,1.11
9.318,0.75,1.56,0.93,1.97
9.328,0.61,2.22,1.39,2.69
9.338,-0.14,2.24,1.55,2.73
9.348,-0.47,1.83,1.12,2.19
9.358,0.11,1.37,0.57,1.48
9.368,1.40,1.19,0.64,1.95
9.378,1.75,1.44,1.80,2.90
9.388,2.28,2.23,3.66,4.86
9.398,1.65,2.49,4.41,5.33
9.408,0.40,2.00,4.43,4.88
9.418,0.02,0.57,3.88,3.92
9.428,1.56,-1.51,1.95,2.92
9.438,4.45,-3.33,-0.47,5.58
9.448,6.71,-4.51,-3.09,8.65
9.458,7.47,-4.63,-5.24,10.23
9.468,6.46,-3.42,-5.54,9.17
9.478,4.06,-1.25,-5.28,6.78
9.488,1.10,0.88,-5.08,5.27
9.498,-1.45,2.39,-4.25,5.09
9.508,-3.02,3.09,-3.06,5.29
9.518,-3.34,2.78,-1.82,4.71
9.528,-2.60,1.63,-0.95,3.22
9.538,-1.20,0.07,-0.79,1.43
9.548,0.53,-1.42,-0.91,1.77
9.558,2.22,-2.39,-1.22,3.48
9.568,2.58,-2.52,-1.70,3.99
9.578,3.12,-1.94,-1.22,3.87
9.588,2.79,-0.75,-1.44,3.23
9.598,0.80,0.30,-1.27,1.53
9.608,-0.61,1.12,-0.97,1.60
9.618,-1.72,1.65,-0.66,2.47
9.628,-3.41,1.68,-0.66,3.86
9.638,-4.08,1.50,-0.42,4.37
9.648,-3.94,1.04,-0.10,4.08
9.658,-3.40,0.22,-0.20,3.41
9.668,-2.69,-0.66,-0.38,2.79
9.678,-2.13,-1.39,-0.45,2.58
9.688,-1.82,-1.82,-0.53,2.63
9.698,-1.67,-1.91,-0.46,2.58
9.708,-1.78,-1.70,-0.29,2.48
9.718,-1.87,-1.32,-0.09,2.29
9.728,-2.13,-0.93,0.17,2.33
9.738,-2.39,-0.82,0.46,2.57
9.748,-2.66,-0.90,0.78,2.92
9.758,-2.80,-1.07,1.07,3.18
9.768,-2.79,-1.29,1.17,3.29
9.778,-2.50,-1.42,1.16,3.10
9.788,-1.78,-1.27,1.18,2.49
9.798,-0.98,-0.89,1.06,1.70
9.808,-0.33,-0.39,0.76,0.92
9.818,0.18,0.15,0.45,0.51
9.828,0.53,0.63,0.58,1.01
9.838,0.51,0.72,1.00,1.33
9.848,0.22,0.20,1.15,1.19
9.858,0.25,-0.70,1.22,1.43
9.868,0.77,-1.37,1.57,2.22
9.878,1.46,-1.53,2.12,3.00
9.888,1.64,-1.38,2.73,3.47
9.898,1.47,-1.33,3.06,3.64
9.908,1.05,-1.47,3.15,3.63
9.918,0.82,-1.64,3.53,3.98
9.928,0.62,-1.63,3.78,4.16
9.938,0.20,-1.23,3.58,3.79
9.948,0.25,-0.20,2.44,2.46
9.958,1.68,1.49,0.45,2.29
9.968,3.68,2.68,-1.54,4.80
9.978,4.29,3.06,-3.41,6.27
9.988,3.64,3.00,-4.73,6.67
9.998,2.52,2.80,-5.15,6.38
10.008,1.44,2.01,-5.00,5.58
10.018,0.15,0.56,-4.65,4.69
10.028,-0.70,-0.82,-4.58,4.70
10.038,-0.09,-1.35,-4.97,5.15
10.048,1.65,-1.06,-5.23,5.58
10.058,3.05,-0.46,-4.51,5.46
10.068,3.09,0.19,-2.66,4.08
10.078,2.35,0.64,-0.47,2.48
10.088,1.62,0.76,0.91,2.01
10.098,1.14,0.44,1.52,1.95
10.108,0.67,-0.25,1.57,1.72
10.118,0.09,-1.04,1.27,1.64
10.128,-1.07,-1.70,0.78,2.16
10.138,-1.46,-1.81,0.66,2.42
10.148,-1.47,-1.65,0.59,2.29
10.158,-1.95,-1.42,0.10,2.41
10.168,-2.09,-0.91,0.08,2.28
10.178,-2.14,-0.36,0.05,2.17
10.188,-2.35,0.12,-0.01,2.36
10.198,-2.48,0.52,0.07,2.53
10.208,-2.49,0.76,0.24,2.62
10.218,-2.28,0.78,0.24,2.43
10.228,-2.27,0.63,0.17,2.36
10.238,-2.36,0.53,0.13,2.42
10.248,-2.26,0.46,0.21,2.31
10.259,-2.05,0.43,0.37,2.13
10.268,-1.91,0.51,0.64,2.08
10.278,-1.85,0.60,0.95,2.16
10.288,-1.71,0.59,0.66,1.92
10.298,-1.76,0.66,0.34,1.91
10.308,-1.75,0.75,0.15,1.91
10.318,-1.46,0.80,-0.27,1.69
10.328,-0.94,0.75,-0.20,1.22
10.338,-0.44,0.58,0.10,0.74
10.348,-0.01,0.24,0.53,0.58
10.358,0.14,-0.13,1.04,1.05
10.368,0.12,-0.43,1.51,1.58
10.378,0.20,-0.55,1.33,1.45
10.388,0.53,-0.21,1.08,1.22
10.399,0.70,0.82,1.37,1.74
10.408,0.31,2.03,1.55,2.57
10.418,-0.46,2.72,1.42,3.10
10.428,-0.81,2.59,1.15,2.94
10.439,-0.13,1.97,1.01,2.22
10.448,1.14,1.43,1.52,2.38
10.459,1.73,1.15,2.53,3.27
10.468,0.40,1.16,3.68,3.88
10.478,-0.16,1.18,4.45,4.61
10.488,-0.93,0.10,3.71,3.82
10.499,-0.21,-2.11,1.83,2.80
10.508,2.65,-4.18,-0.46,4.97
10.518,5.25,-5.09,-2.27,7.66
10.529,7.21,-4.81,-4.03,9.56
10.538,7.63,-3.67,-4.82,9.74
10.548,6.10,-1.60,-4.47,7.73
10.558,3.34,0.61,-4.12,5.34
10.568,0.15,2.17,-4.01,4.56
10.579,-2.40,2.94,-3.72,5.31
10.588,-3.34,2.83,-2.58,5.08
10.598,-2.72,1.79,-1.15,3.45
10.609,-1.19,0.41,-0.50,1.36
10.619,0.41,-0.89,-0.09,0.99
10.629,2.38,-1.85,-0.32,3.03
10.639,3.53,-1.97,-0.62,4.09
10.649,3.59,-1.26,-0.59,3.85
10.659,3.22,-0.22,-0.40,3.25
10.669,1.97,0.84,-0.74,2.27
10.679,-0.32,1.65,-0.90,1.91
10.689,-2.20,2.04,-0.75,3.09
10.699,-3.50,1.99,-0.53,4.06
10.709,-4.50,1.49,-0.34,4.75
10.719,-5.12,0.72,-0.26,5.18
10.729,-5.01,-0.13,-0.26,5.02
10.739,-4.25,-1.07,-0.31,4.40
10.749,-3.00,-2.00,-0.24,3.62
10.759,-2.06,-2.55,-0.10,3.28
10.769,-1.29,-2.73,-0.03,3.02
10.779,-1.23,-2.44,-0.05,2.73
10.789,-1.48,-1.83,0.20,2.36
10.799,-1.45,-1.32,0.36,2.00
10.809,-1.69,-0.96,0.36,1.98
10.819,-1.97,-0.79,0.53,2.19
10.829,-2.00,-0.77,0.75,2.27
10.839,-1.94,-0.87,0.91,2.31
10.849,-1.69,-1.06,1.02,2.24
10.859,-1.13,-1.16,1.10,1.96
10.869,-0.46,-1.10,1.15,1.66
10.879,0.15,-0.80,1.22,1.46
10.889,0.53,-0.29,1.33,1.46
10.899,0.59,0.27,1.46,1.60
10.909,0.25,0.66,1.56,1.71
10.919,-0.27,0.66,1.50,1.66
10.929,-0.45,0.26,1.39,1.48
10.939,0.22,-0.41,0.90,1.01
10.949,0.78,-0.89,1.11,1.62
10.959,1.21,-1.36,1.93,2.65
10.969,1.37,-1.79,2.62,3.45
10.979,0.98,-2.15,3.20,3.97
10.989,0.54,-2.31,3.77,4.46
10.999,0.29,-2.05,4.11,4.60
11.009,0.01,-1.52,3.96,4.24
11.019,-0.14,-0.50,2.63,2.68
11.029,0.99,1.36,0.11,1.69
11.039,2.77,3.00,-1.60,4.39
11.049,3.53,3.91,-2.42,5.80
11.059,3.86,4.18,-3.38,6.62
11.069,3.79,3.64,-4.75,7.08
11.079,3.46,2.22,-5.39,6.78
11.089,2.52,0.30,-5.66,6.20
11.099,1.36,-1.34,-5.88,6.18
11.109,1.00,-1.95,-6.04,6.42
11.119,1.31,-1.48,-5.80,6.12
11.129,1.31,-0.44,-4.67,4.88
11.139,0.90,0.59,-2.76,2.96
11.149,0.53,1.25,-0.86,1.61
11.159,0.63,1.33,0.45,1.54
11.169,0.80,0.81,1.11,1.59
11.179,0.78,-0.21,1.01,1.29
11.189,0.36,-1.25,0.51,1.40
11.199,-0.16,-1.84,-0.06,1.85
11.209,-1.38,-1.79,-0.32,2.28
11.219,-1.23,-1.07,-0.08,1.64
11.229,-1.38,-0.53,-0.24,1.50
11.239,-1.72,-0.18,-0.46,1.79
11.249,-1.66,0.02,-0.25,1.68
11.259,-1.80,-0.01,0.05,1.80
11.269,-1.94,0.04,0.40,1.99
11.279,-2.05,0.14,0.79,2.20
11.289,-1.92,0.13,0.84,2.10
11.299,-1.81,-0.05,0.58,1.90
11.309,-1.76,-0.19,0.33,1.80
11.319,-1.66,-0.15,0.28,1.69
11.329,-1.63,0.09,0.37,1.68
11.339,-1.85,0.43,0.46,1.95
11.349,-2.06,0.87,0.63,2.32
11.359,-2.34,1.23,0.77,2.75
11.369,-2.55,1.46,0.85,3.06
11.379,-2.62,1.46,0.84,3.11
11.389,-2.46,1.27,0.68,2.85
11.399,-2.05,0.93,0.51,2.31
11.409,-1.57,0.58,0.44,1.74
11.419,-0.97,0.32,0.51,1.14
11.429,-0.55,0.16,0.65,0.87
11.439,-0.27,0.12,0.87,0.92
11.449,0.12,0.16,0.88,0.90
11.459,0.80,0.41,0.64,1.10
11.469,1.28,1.05,0.76,1.82
11.479,1.03,1.89,0.83,2.31
11.489,0.29,2.57,0.83,2.72
11.499,0.05,2.75,0.64,2.82
11.509,0.53,2.37,0.43,2.46
11.519,1.49,1.84,0.79,2.50
11.529,2.21,1.56,1.87,3.29
11.539,2.00,1.39,3.05,3.90
11.549,0.67,1.11,3.88,4.09
11.559,-0.72,0.51,4.26,4.35
11.569,-1.36,-0.69,4.11,4.39
11.579,-0.30,-2.62,2.64,3.74
11.589,2.91,-4.22,-0.07,5.13
11.599,5.51,-4.77,-2.34,7.65
11.609,6.72,-4.24,-4.13,8.96
11.619,6.11,-3.17,-5.24,8.65
11.629,3.86,-1.61,-5.73,7.09
11.639,1.34,0.19,-5.51,5.67
11.649,-0.68,1.72,-4.71,5.06
11.659,-2.00,2.74,-3.96,5.21
11.669,-2.35,2.90,-3.09,4.84
11.679,-1.69,2.15,-2.10,3.45
11.689,-0.34,0.95,-1.27,1.62
11.699,1.28,-0.28,-0.75,1.51
11.709,2.22,-1.01,-0.83,2.58
11.719,3.21,-1.06,-0.37,3.41
11.729,3.71,-0.69,-0.61,3.82
11.739,2.49,0.18,-0.74,2.61
11.749,1.47,0.72,-0.41,1.68
11.759,-0.09,0.96,-0.34,1.02
11.769,-2.23,1.09,-0.14,2.48
11.779,-3.59,1.05,0.21,3.75
11.789,-4.20,0.87,0.42,4.30
11.799,-4.59,0.52,0.43,4.64
11.809,-4.49,0.14,0.32,4.50
11.819,-3.81,-0.22,0.25,3.82
11.829,-3.06,-0.58,0.04,3.11
11.839,-2.28,-0.89,-0.12,2.45
11.849,-1.65,-1.22,-0.11,2.05
11.859,-1.48,-1.45,-0.05,2.07
11.869,-1.50,-1.50,0.04,2.12
11.880,-1.78,-1.40,0.09,2.27
11.889,-2.08,-1.18,0.27,2.40
11.899,-2.26,-0.93,0.50,2.49
11.910,-2.34,-0.76,0.76,2.57
11.919,-2.30,-0.79,0.91,2.60
11.930,-2.05,-0.90,0.92,2.42
11.939,-1.61,-0.97,0.82,2.05
11.950,-1.02,-0.95,0.61,1.52
11.960,-0.27,-0.77,0.38,0.90
11.970,0.48,-0.43,0.25,0.69
11.980,1.04,-0.09,0.49,1.15
11.990,1.20,0.01,1.05,1.59
11.996,1.20,-0.00,1.02,1.58
12.006,1.07,-0.20,1.44,1.80
12.016,1.04,-0.59,1.66,2.05
12.026,1.23,-0.89,1.81,2.36
12.036,1.44,-0.95,1.96,2.61
12.046,1.45,-1.07,2.32,2.94
12.056,1.46,-1.30,2.72,3.35
12.066,1.22,-1.48,3.33,3.84
12.076,0.84,-1.55,4.10,4.46
12.086,0.60,-1.53,4.65,4.93
12.096,0.39,-1.42,4.41,4.65
12.106,0.53,-0.81,2.86,3.02
12.116,2.13,0.56,0.84,2.36
12.126,4.11,2.03,-0.57,4.62
12.136,4.79,3.13,-1.56,5.93
12.146,3.58,3.40,-2.71,5.63
12.156,2.17,2.91,-3.59,5.11
12.166,0.94,1.66,-4.55,4.93
12.176,-0.32,0.04,-5.25,5.26
12.186,-0.99,-1.09,-5.60,5.79
12.196,-0.69,-1.28,-5.80,5.98
12.206,0.28,-0.51,-5.68,5.71
12.216,1.12,0.70,-4.68,4.87
12.226,1.31,1.85,-2.67,3.50
12.236,1.02,2.48,-0.42,2.72
12.246,0.83,2.30,1.05,2.66
12.256,0.87,1.30,1.50,2.17
12.266,1.16,-0.16,1.36,1.79
12.276,0.59,-1.55,0.80,1.84
12.286,0.19,-2.31,0.34,2.34
12.296,0.21,-2.45,-0.05,2.46
12.306,-0.50,-2.17,-0.68,2.33
12.316,-0.87,-1.44,-1.07,1.99
12.326,-1.24,-0.39,-0.96,1.62
12.336,-1.73,0.57,-0.72,1.96
12.346,-2.14,1.32,-0.48,2.56
12.358,-2.53,1.98,-0.03,3.21
12.368,-2.51,1.75,0.08,3.06
12.378,-2.34,1.22,0.02,2.64
12.388,-2.21,0.61,-0.18,2.30
12.398,-2.16,0.17,-0.21,2.18
12.409,-2.16,-0.00,0.12,2.16
12.419,-2.23,0.07,0.55,2.30
12.429,-2.36,0.28,0.88,2.53
12.438,-2.40,0.53,0.97,2.65
12.449,-2.32,0.81,0.88,2.61
12.459,-2.21,1.04,0.66,2.53
12.469,-2.01,1.11,0.35,2.32
12.479,-1.63,1.10,0.23,1.98
12.488,-1.13,0.94,0.45,1.53
12.498,-0.63,0.64,0.84,1.22
12.509,-0.22,0.22,1.09,1.14
12.519,0.07,-0.17,0.98,1.00
12.529,0.42,-0.19,0.92,1.03
12.539,0.72,0.15,1.25,1.45
12.549,0.85,0.63,1.74,2.03
12.559,0.43,0.83,1.59,1.84
12.569,0.27,0.97,0.88,1.34
12.579,0.87,1.39,0.36,1.68
12.589,1.66,2.08,0.64,2.74
12.599,2.29,2.84,1.76,4.05
12.609,2.09,3.41,3.25,5.16
12.619,0.86,3.46,4.39,5.65
12.629,-0.68,2.73,4.53,5.33
12.639,-1.62,1.19,3.82,4.32
12.649,-1.29,-1.16,2.51,3.06
12.659,1.11,-3.36,0.13,3.54
12.669,4.44,-4.52,-1.96,6.64
12.679,7.27,-4.63,-3.57,9.33
12.689,8.19,-3.93,-4.33,10.06
12.699,6.67,-2.29,-3.93,8.07
12.709,3.55,-0.12,-3.71,5.14
12.719,0.25,1.62,-3.57,3.92
12.729,-2.28,2.48,-3.38,4.77
12.739,-3.29,2.32,-2.93,4.98
12.749,-2.99,1.26,-2.10,3.87
12.759,-1.97,-0.09,-1.18,2.30
12.769,-0.28,-1.44,-0.56,1.57
12.779,1.40,-2.29,-0.64,2.76
12.789,2.95,-2.42,-0.74,3.88
12.799,4.32,-1.97,-0.84,4.82
12.809,3.61,-0.56,-1.05,3.80
12.819,2.49,0.60,-0.67,2.65
12.829,1.24,1.31,-0.75,1.95
12.839,-0.97,1.76,-0.77,2.15
12.849,-3.35,1.99,-0.57,3.94
12.859,-4.14,2.04,-0.27,4.62
12.869,-4.52,1.68,-0.29,4.83
12.879,-4.41,0.99,-0.45,4.54
12.889,-3.64,0.14,-0.45,3.67
12.899,-2.90,-0.66,-0.44,3.01
12.909,-2.24,-1.27,-0.42,2.61
12.919,-1.73,-1.64,-0.35,2.41
12.929,-1.27,-1.82,-0.26,2.23
12.939,-1.16,-1.80,-0.25,2.15
12.949,-1.37,-1.59,-0.09,2.10
12.959,-1.79,-1.27,0.05,2.20
12.969,-2.23,-1.01,0.29,2.47
12.979,-2.55,-0.82,0.61,2.75
12.989,-2.66,-0.79,0.87,2.91
12.999,-2.52,-0.82,0.82,2.77
13.009,-2.27,-0.88,0.97,2.62
13.019,-1.66,-0.98,1.04,2.19
13.029,-0.88,-0.97,1.27,1.82
13.039,-0.19,-0.82,1.44,1.67
13.049,0.28,-0.53,1.53,1.64
13.059,0.51,-0.26,1.61,1.71
13.069,0.29,-0.23,1.69,1.73
13.079,-0.11,-0.51,1.60,1.68
13.089,-0.12,-1.04,1.43,1.77
13.099,0.44,-1.38,1.49,2.08
13.109,1.18,-1.17,1.86,2.49
13.119,1.55,-0.76,2.55,3.08
13.129,1.56,-0.50,3.02,3.43
13.139,1.04,-0.58,3.15,3.37
13.149,0.65,-1.00,3.30,3.51
13.159,0.45,-1.42,3.18,3.51
13.169,0.21,-1.49,2.70,3.09
13.179,0.53,-0.72,1.46,1.71
13.189,2.21,0.50,0.34,2.29
13.199,4.15,1.46,-0.70,4.46
13.209,5.21,2.01,-2.21,6.01
13.219,4.61,2.10,-3.92,6.41
13.229,3.61,2.01,-4.80,6.34
13.239,2.01,1.45,-5.03,5.61
13.249,0.38,0.53,-5.43,5.47
13.259,-0.37,-0.38,-5.94,5.96
13.269,0.14,-0.60,-6.17,6.20
13.279,1.02,-0.08,-5.59,5.69
13.289,1.14,0.45,-4.21,4.39
13.299,0.71,0.60,-2.24,2.42
13.309,0.51,0.37,-0.27,0.69
13.319,0.71,-0.02,1.11,1.31
13.329,1.20,-0.61,1.93,2.36
13.339,1.58,-1.47,2.16,3.05
13.349,0.90,-2.23,1.75,2.97
13.359,0.37,-2.33,1.35,2.72
13.369,-0.01,-1.98,0.79,2.13
13.379,-1.51,-1.71,0.03,2.28
13.389,-2.32,-1.14,-0.42,2.62
13.399,-2.65,-0.55,-0.50,2.76
13.409,-2.82,-0.04,-0.61,2.88
13.419,-2.70,0.46,-0.58,2.80
13.429,-2.66,0.85,-0.37,2.81
13.439,-2.40,1.10,-0.09,2.64
13.449,-1.95,1.11,-0.03,2.25
13.459,-1.81,0.92,-0.18,2.03
13.469,-1.75,0.69,-0.29,1.90
13.479,-1.71,0.54,-0.24,1.81
13.489,-1.67,0.49,-0.13,1.75
13.499,-1.79,0.55,0.01,1.87
13.509,-2.02,0.66,0.22,2.14
13.519,-2.20,0.83,0.37,2.38
13.529,-2.16,1.01,0.45,2.43
13.539,-1.84,1.06,0.54,2.19
13.549,-1.33,0.95,0.67,1.77
13.559,-0.88,0.71,0.86,1.42
13.569,-0.52,0.40,1.03,1.22
13.579,-0.24,0.10,1.20,1.23
13.589,-0.13,-0.22,1.45,1.47
13.599,0.02,-0.46,1.88,1.94
13.609,0.24,-0.57,1.91,2.00
13.619,0.55,-0.40,1.67,1.80
13.629,0.45,0.32,1.31,1.42
13.639,-0.14,1.63,0.89,1.86
13.649,-0.87,2.82,0.72,3.04
13.659,-0.81,3.28,0.94,3.51
13.669,0.42,2.95,1.43,3.31
13.679,1.73,2.22,2.06,3.49
13.689,2.32,1.32,2.88,3.92
13.699,0.58,0.22,3.51,3.56
13.709,-0.09,-0.44,4.35,4.37
13.719,-0.47,-1.98,3.89,4.39
13.729,0.62,-4.41,1.61,4.73
13.739,4.37,-5.94,-1.17,7.47
13.749,6.58,-6.02,-2.86,9.37
13.759,7.37,-4.68,-4.21,9.69
13.769,6.26,-2.52,-5.30,8.59
13.779,3.61,-0.08,-5.65,6.70
13.789,0.73,2.04,-5.19,5.63
13.800,-1.64,3.49,-4.61,6.01
13.810,-3.09,3.97,-3.87,6.35
13.819,-3.18,3.25,-2.74,5.32
13.829,-1.98,1.81,-1.50,3.08
13.840,0.19,0.21,-0.79,0.84
13.850,2.33,-1.15,-0.55,2.66
13.860,4.08,-1.70,-0.79,4.49
13.870,4.59,-1.37,-0.71,4.85
13.880,4.79,-0.43,-0.74,4.86
13.890,2.97,0.86,-1.15,3.29
13.900,0.94,1.73,-0.98,2.20
13.910,-1.12,2.18,-0.83,2.59
13.920,-3.22,2.19,-0.64,3.95
13.930,-4.59,1.81,-0.23,4.94
13.940,-5.18,1.06,-0.06,5.28
13.950,-5.31,0.18,-0.33,5.32
13.960,-4.79,-0.71,-0.65,4.89
13.969,-3.46,-1.54,-0.88,3.89
13.980,-2.27,-2.14,-0.99,3.28
13.990,-1.98,-2.40,-1.07,3.29
14.000,-1.54,-2.18,-0.91,2.82
14.010,-1.26,-1.73,-0.82,2.30
14.020,-1.35,-1.24,-0.66,1.95
14.030,-1.51,-0.77,-0.20,1.70
14.040,-1.77,-0.45,0.29,1.85
14.050,-1.80,-0.45,0.78,2.01
14.060,-1.65,-0.73,1.08,2.10
14.070,-1.44,-1.16,1.31,2.26
14.080,-1.18,-1.53,1.48,2.43
14.090,-1.13,-1.58,1.52,2.46
14.100,-0.89,-1.28,1.44,2.12
14.110,-0.60,-0.77,1.29,1.62
14.120,-0.28,-0.25,1.28,1.34
14.130,0.07,0.11,1.31,1.31
14.140,0.26,0.21,1.45,1.49
14.150,0.30,-0.11,1.68,1.71
14.160,0.36,-0.83,1.61,1.85
14.170,0.56,-1.59,1.34,2.15
14.180,0.77,-2.01,1.06,2.40
14.190,1.02,-2.11,1.39,2.73
14.200,1.25,-2.01,2.03,3.12
14.210,1.07,-1.84,2.83,3.54
14.220,0.54,-1.86,3.77,4.24
14.230,-0.10,-2.09,4.34,4.82
14.240,-0.66,-2.32,4.20,4.85
14.250,-0.79,-2.03,3.55,4.17
14.260,0.18,-0.36,1.69,1.74
14.270,2.75,2.26,-0.58,3.61
14.280,4.71,4.11,-0.86,6.31
14.290,4.85,4.90,-1.47,7.05
14.300,3.64,4.66,-3.20,6.72
14.310,2.04,3.61,-4.44,6.07
14.320,0.94,1.90,-4.91,5.35
14.330,-0.05,0.22,-5.09,5.09
14.340,-0.25,-0.80,-5.55,5.61
14.350,0.64,-0.96,-6.19,6.30
14.360,1.80,-0.32,-5.97,6.24
14.370,2.45,0.76,-4.13,4.87
14.380,2.53,1.50,-1.32,3.22
14.390,2.18,1.55,0.78,2.79
14.400,1.65,0.89,2.09,2.81
14.410,1.32,-0.55,2.22,2.64
14.420,0.93,-2.26,1.45,2.84
14.430,-0.55,-3.47,0.39,3.53
14.440,-0.31,-3.44,0.09,3.46
14.450,-0.50,-2.73,-0.48,2.82
14.460,-1.85,-1.45,-0.84,2.50
14.470,-1.76,-0.02,-0.45,1.81
14.480,-1.94,1.09,-0.16,2.23
14.490,-2.39,1.70,0.08,2.93
14.500,-2.64,1.95,0.33,3.30
14.510,-2.95,1.81,0.35,3.48
14.520,-2.86,1.40,0.34,3.21
14.530,-2.55,0.82,0.16,2.68
14.540,-2.39,0.29,-0.11,2.41
14.550,-2.25,-0.04,-0.15,2.25
14.560,-2.11,-0.10,-0.03,2.11
14.570,-2.20,0.04,0.23,2.21
14.580,-2.25,0.24,0.48,2.31
14.590,-2.28,0.42,0.56,2.38
14.600,-2.53,0.62,0.62,2.68
14.610,-2.77,0.81,0.47,2.92
14.620,-2.74,1.07,0.09,2.95
14.630,-2.41,1.35,-0.20,2.77
14.640,-1.81,1.39,-0.36,2.31
14.650,-1.10,1.25,-0.34,1.69
14.660,-0.33,0.96,0.03,1.02
14.670,0.32,0.64,0.51,0.88
14.680,0.79,0.27,0.76,1.13
14.690,1.26,0.07,0.67,1.43
14.700,1.73,0.34,0.86,1.96
14.710,1.98,0.99,1.56,2.71
14.720,1.76,1.49,2.20,3.18
14.730,0.92,1.43,2.01,2.63
14.740,0.42,1.18,1.28,1.79
14.750,0.61,1.20,1.04,1.70
14.760,1.18,1.63,1.60,2.57
14.770,1.64,2.28,3.09,4.18
14.780,1.19,2.71,4.47,5.36
14.790,-0.26,2.65,4.92,5.60
14.800,-0.85,1.77,4.50,4.91
14.810,-1.13,-0.03,2.90,3.11
14.820,0.28,-2.03,1.32,2.44
14.830,3.07,-3.30,0.06,4.50
14.840,5.34,-3.73,-1.75,6.74
14.850,6.86,-3.59,-4.24,8.82
14.860,6.82,-2.94,-5.00,8.95
14.870,5.14,-1.71,-4.46,7.02
14.880,2.58,-0.45,-4.41,5.13
14.890,0.17,0.38,-4.34,4.36
14.900,-1.51,0.95,-3.54,3.96
14.910,-2.21,1.23,-2.07,3.27
14.920,-2.05,1.12,-0.65,2.43
14.930,-1.07,0.63,-0.02,1.24
14.940,-0.49,0.15,0.09,0.52
14.950,0.97,-0.44,0.30,1.11
14.960,2.87,-0.89,-0.14,3.00
14.970,2.79,-0.83,-0.67,2.98
14.980,2.48,-0.42,-0.73,2.62
14.990,1.68,0.15,-0.51,1.77
15.000,0.02,0.68,-0.40,0.79
15.010,-1.78,1.03,-0.44,2.10
15.020,-3.14,1.23,-0.62,3.43
15.030,-4.19,1.24,-0.79,4.44
15.040,-4.70,1.08,-0.80,4.89
15.050,-4.61,0.71,-0.71,4.72
15.060,-4.16,0.11,-0.61,4.21
15.070,-3.29,-0.63,-0.51,3.39
15.080,-2.21,-1.34,-0.45,2.62
15.090,-1.44,-1.87,-0.35,2.39
15.100,-1.15,-2.07,-0.19,2.38
15.110,-0.89,-1.95,0.05,2.14
15.120,-1.07,-1.58,0.15,1.91
15.130,-1.60,-1.15,0.33,1.99
15.140,-1.96,-0.80,0.63,2.21
15.150,-2.20,-0.64,0.80,2.42
15.160,-2.20,-0.67,0.76,2.42
15.170,-1.94,-0.72,0.68,2.18
15.180,-1.34,-0.68,0.75,1.68
15.190,-0.64,-0.51,0.95,1.26
15.200,-0.19,-0.26,1.12,1.17
15.210,-0.06,-0.04,1.32,1.32
15.221,-0.16,0.07,1.52,1.53
15.231,-0.38,-0.10,1.56,1.61
15.240,-0.32,-0.43,1.46,1.55
15.250,0.20,-0.72,1.35,1.55
15.260,0.84,-0.74,1.40,1.80
15.270,1.08,-0.75,1.98,2.38
15.280,1.29,-1.02,2.64,3.11
15.291,1.35,-1.51,3.07,3.68
15.301,1.13,-2.08,3.39,4.13
15.311,0.83,-2.48,3.90,4.70
15.321,0.85,-2.62,3.91,4.78
15.330,0.58,-2.40,3.69,4.43
15.341,0.79,-1.31,2.22,2.69
15.351,2.32,0.86,0.49,2.52
15.361,3.55,3.04,-0.40,4.69
15.371,3.55,4.65,-1.20,5.97
15.381,2.85,5.16,-2.68,6.47
15.391,2.24,4.34,-4.43,6.59
15.401,1.79,2.35,-5.73,6.45
15.411,1.32,-0.17,-6.44,6.57
15.421,0.94,-2.08,-6.93,7.30
15.431,1.02,-2.58,-6.91,7.45
15.441,1.32,-1.83,-6.17,6.57
15.451,1.30,-0.59,-4.80,5.01
15.461,0.74,0.69,-2.90,3.07
15.470,0.38,1.75,-0.71,1.93
15.481,0.51,2.11,1.15,2.46
15.491,0.64,1.57,2.28,2.84
15.501,0.99,0.28,2.51,2.72
15.511,0.18,-1.24,1.88,2.26
15.521,0.41,-2.20,1.13,2.51
15.531,-0.09,-2.71,0.15,2.72
15.541,-1.11,-2.70,-0.72,3.00
15.551,-1.29,-2.02,-1.02,2.61
15.561,-1.78,-1.22,-1.07,2.41
15.571,-2.20,-0.33,-0.95,2.42
15.581,-2.50,0.56,-0.54,2.62
15.591,-2.71,1.28,-0.06,3.00
15.601,-2.60,1.62,0.22,3.07
15.611,-2.52,1.54,0.22,2.97
15.621,-2.51,1.14,0.04,2.76
15.631,-2.64,0.63,-0.25,2.73
15.641,-2.63,0.24,-0.27,2.66
15.651,-2.67,-0.00,-0.21,2.68
15.661,-2.65,-0.05,-0.01,2.65
15.671,-2.53,0.02,0.21,2.54
15.681,-2.35,0.25,0.35,2.39
15.691,-2.34,0.61,0.33,2.44
15.701,-2.27,1.07,0.36,2.53
15.711,-1.76,1.45,0.37,2.31
15.721,-1.07,1.51,0.36,1.89
15.731,-0.37,1.24,0.40,1.35
15.741,0.20,0.73,0.55,0.94
15.751,0.62,0.13,0.75,0.98
15.761,0.86,-0.37,1.14,1.48
15.771,0.94,-0.67,1.39,1.81
15.781,1.13,-0.61,1.28,1.81
15.791,1.36,0.03,1.24,1.84
15.801,1.21,1.16,1.34,2.15
15.811,0.52,2.13,1.52,2.67
15.821,0.02,2.60,1.57,3.04
15.831,0.36,2.43,1.44,2.85
15.841,1.44,2.08,1.58,2.99
15.851,2.29,1.96,2.57,3.96
15.861,2.19,1.88,3.74,4.72
15.871,0.34,1.56,4.18,4.47
15.881,-0.67,0.97,4.40,4.55
15.891,-0.92,-0.76,3.37,3.58
15.901,0.62,-2.93,1.50,3.35
15.911,3.44,-4.46,-0.37,5.64
15.921,5.50,-4.94,-1.99,7.66
15.931,6.75,-4.11,-4.00,8.86
15.941,6.31,-2.42,-4.94,8.37
15.951,4.36,-0.42,-4.95,6.61
15.961,1.75,1.33,-4.82,5.30
15.971,-0.58,2.36,-4.55,5.16
15.981,-2.09,2.54,-3.99,5.17
15.992,-2.55,1.96,-2.80,4.26
15.998,-2.56,1.93,-2.77,4.23
16.008,-1.91,1.11,-1.37,2.59
16.018,-0.31,0.37,-0.44,0.65
16.028,0.90,-0.26,-0.48,1.05
16.038,2.18,-0.63,0.07,2.27
16.048,3.48,-0.69,-0.16,3.55
16.058,2.43,-0.31,-1.05,2.67
16.068,1.31,0.50,-1.25,1.88
16.078,0.26,1.13,-1.09,1.59
16.088,-1.30,1.46,-0.91,2.15
16.098,-2.89,1.45,-0.56,3.28
16.108,-3.99,1.14,-0.51,4.18
16.118,-4.58,0.66,-0.75,4.68
16.128,-4.65,0.08,-0.89,4.74
16.138,-4.21,-0.47,-0.84,4.32
16.148,-3.56,-0.99,-0.65,3.75
16.158,-2.84,-1.37,-0.37,3.17
16.168,-2.44,-1.64,0.01,2.94
16.179,-2.18,-1.73,0.43,2.82
16.189,-1.78,-1.71,0.68,2.56
16.199,-1.66,-1.58,0.63,2.38
16.209,-1.84,-1.34,0.61,2.36
16.219,-2.11,-1.12,0.76,2.51
16.229,-2.31,-1.10,1.01,2.75
16.239,-2.30,-1.28,1.14,2.87
16.248,-2.12,-1.45,1.17,2.82
16.259,-1.69,-1.46,1.17,2.52
16.268,-0.91,-1.19,1.22,1.93
16.279,0.11,-0.70,1.25,1.43
16.289,0.75,-0.16,1.29,1.50
16.299,1.00,0.32,1.47,1.81
16.308,0.89,0.53,1.59,1.90
16.319,0.51,0.28,1.51,1.62
16.329,0.28,-0.25,1.26,1.31
16.339,0.53,-0.70,1.18,1.47
16.349,0.99,-0.63,1.41,1.83
16.361,1.20,-0.31,2.55,2.84
16.371,1.11,-0.63,2.78,3.06
16.381,0.86,-1.30,3.25,3.61
16.391,0.70,-1.93,3.87,4.38
16.401,0.64,-2.19,3.87,4.49
16.411,1.06,-1.40,2.44,3.00
16.421,2.82,0.68,0.11,2.90
16.431,4.98,2.60,-0.65,5.66
16.441,5.96,3.69,-0.37,7.02
16.451,5.44,3.74,-1.30,6.73
16.461,4.14,2.77,-3.05,5.85
16.471,2.75,1.01,-4.62,5.47
16.481,1.15,-1.00,-5.63,5.84
16.491,-0.10,-2.49,-6.09,6.58
16.501,-0.37,-2.88,-6.48,7.10
16.511,0.27,-2.08,-6.51,6.84
16.521,0.76,-0.48,-5.42,5.50
16.531,0.50,1.23,-3.27,3.53
16.541,0.14,2.46,-0.74,2.57
16.551,-0.58,2.99,0.92,3.18
16.561,-0.69,2.62,1.83,3.27
16.571,-1.05,1.40,1.95,2.62
16.581,-0.06,0.03,1.91,1.91
16.591,0.78,-1.56,1.07,2.04
16.601,0.44,-2.82,-0.41,2.88
16.611,-0.27,-3.15,-1.05,3.33
16.621,-1.04,-2.63,-0.94,2.98
16.631,-1.42,-1.55,-0.83,2.26
16.641,-2.00,-0.43,-0.69,2.16
16.651,-2.42,0.42,-0.51,2.51
16.661,-2.82,0.98,-0.46,3.02
16.671,-2.94,1.35,-0.40,3.26
16.681,-2.68,1.45,-0.35,3.07
16.691,-2.44,1.25,-0.46,2.78
16.701,-2.27,0.88,-0.49,2.49
16.711,-2.05,0.54,-0.26,2.13
16.721,-1.76,0.26,0.15,1.79
16.731,-1.68,0.11,0.50,1.76
16.741,-1.78,0.09,0.80,1.96
16.751,-1.93,0.17,0.96,2.16
16.761,-2.18,0.33,0.91,2.39
16.771,-2.40,0.58,0.77,2.58
16.781,-2.35,0.77,0.57,2.54
16.791,-1.96,0.75,0.56,2.17
16.801,-1.41,0.45,0.70,1.64
16.811,-0.91,-0.05,0.84,1.24
16.822,-0.45,-0.54,0.96,1.19
16.832,-0.05,-0.85,1.14,1.43
16.842,0.34,-0.90,1.12,1.47
16.852,0.86,-0.53,0.57,1.16
16.862,1.44,0.44,0.63,1.63
16.872,1.73,1.82,1.25,2.80
16.882,1.21,2.79,1.44,3.37
16.892,0.45,2.94,1.21,3.21
16.902,0.42,2.41,0.75,2.56
16.912,1.40,1.76,0.88,2.42
16.922,2.34,1.41,2.13,3.47
16.932,2.30,1.27,3.92,4.72
16.942,1.14,1.07,5.16,5.39
16.952,-0.64,0.49,5.00,5.07
16.962,-1.89,-0.67,4.10,4.56
16.972,-1.40,-2.40,2.49,3.73
16.982,0.98,-3.71,0.49,3.87
16.992,3.95,-3.97,-1.10,5.71
17.002,6.31,-3.27,-3.09,7.75
17.012,7.03,-1.95,-4.53,8.59
17.022,5.77,-0.15,-4.63,7.40
17.032,3.18,1.64,-4.51,5.76
17.042,0.41,2.84,-4.40,5.25
17.052,-1.59,3.17,-4.19,5.49
17.062,-2.52,2.37,-3.42,4.87
17.072,-2.50,1.00,-2.13,3.43
17.082,-1.46,-0.32,-0.88,1.73
17.092,0.56,-1.42,-0.14,1.53
17.102,2.38,-2.21,0.10,3.24
17.112,3.11,-2.21,-0.09,3.81
17.122,3.13,-1.26,-0.02,3.37
17.132,2.86,0.12,-0.34,2.88
17.142,1.23,1.37,-0.85,2.03
17.152,-0.39,2.09,-0.79,2.26
17.162,-1.92,2.37,-0.61,3.11
17.172,-3.69,2.20,-0.60,4.34
17.182,-4.82,1.79,-0.72,5.19
17.192,-4.91,1.22,-0.86,5.13
17.202,-4.58,0.43,-0.92,4.69
17.212,-3.65,-0.47,-1.10,3.84
17.222,-2.74,-1.15,-1.07,3.16
17.232,-2.17,-1.57,-0.62,2.75
17.242,-1.88,-1.85,-0.31,2.66
17.252,-1.76,-2.11,0.03,2.75
17.262,-2.01,-2.22,0.26,3.01
17.272,-2.45,-2.04,0.48,3.22
17.282,-2.75,-1.64,0.69,3.27
17.292,-3.01,-1.13,0.85,3.32
17.302,-3.15,-0.79,0.96,3.39
17.312,-3.13,-0.66,0.98,3.35
17.322,-2.80,-0.80,0.88,3.05
17.332,-2.06,-1.15,0.62,2.44
17.342,-1.21,-1.33,0.35,1.83
17.352,-0.11,-1.21,0.41,1.28
17.362,0.78,-0.92,0.58,1.34
17.372,0.84,-0.65,0.65,1.24
17.382,1.13,-0.42,0.90,1.50
17.392,1.57,-0.40,1.03,1.92
17.402,1.77,-0.25,1.42,2.29
17.412,1.99,0.06,1.93,2.77
17.422,1.97,0.01,2.29,3.02
17.432,2.03,-0.83,2.58,3.39
17.442,2.27,-1.81,3.00,4.17
17.452,2.27,-2.30,3.89,5.06
17.462,2.06,-2.13,4.98,5.79
17.472,1.50,-1.63,5.29,5.74
17.482,0.87,-1.21,4.48,4.73
17.492,0.66,-0.43,2.19,2.32
17.502,1.64,1.19,0.03,2.02
17.512,3.31,2.83,-0.44,4.38
17.522,4.35,4.01,-1.21,6.04
17.532,4.06,4.26,-2.67,6.46
17.542,4.07,3.60,-3.91,6.70
17.552,3.13,1.75,-5.06,6.20
17.562,1.82,-0.53,-5.64,5.96
17.572,0.48,-2.00,-5.56,5.93
17.582,-0.48,-2.33,-5.75,6.22
17.592,-0.01,-1.50,-5.78,5.97
17.602,0.12,-0.07,-5.16,5.17
17.612,0.03,1.21,-3.13,3.36
17.622,0.23,1.79,-0.67,1.93
17.632,0.67,1.63,0.93,1.99
17.642,1.31,0.75,1.68,2.25
17.652,1.49,-0.54,1.84,2.43
17.662,0.90,-1.76,1.55,2.51
17.672,0.35,-2.23,0.99,2.47
17.682,0.63,-2.13,0.20,2.23
17.692,-1.09,-1.91,-0.93,2.39
17.702,-2.22,-1.09,-1.29,2.79
17.712,-2.42,-0.09,-0.99,2.62
17.722,-3.25,0.59,-1.01,3.45
17.732,-3.58,1.09,-0.97,3.87
17.742,-3.51,1.41,-0.78,3.87
17.752,-3.10,1.48,-0.66,3.50
17.762,-2.54,1.38,-0.63,2.95
17.772,-2.24,1.13,-0.72,2.61
17.782,-2.24,0.79,-0.83,2.52
17.792,-2.25,0.58,-0.69,2.42
17.802,-2.29,0.44,-0.40,2.36
17.812,-2.58,0.34,-0.09,2.60
17.822,-3.06,0.31,0.34,3.09
17.832,-3.53,0.42,0.74,3.63
17.842,-3.80,0.71,1.00,3.99
17.852,-3.77,1.19,1.18,4.13
17.862,-3.41,1.71,1.26,4.02
17.872,-2.71,2.08,1.17,3.62
17.882,-1.66,2.11,0.98,2.86
17.892,-0.52,1.72,0.53,1.88
17.902,0.60,1.09,0.11,1.25
17.912,1.42,0.35,0.03,1.46
17.922,2.11,-0.33,0.16,2.14
17.932,2.77,-0.71,0.44,2.89
17.942,3.20,-0.62,1.16,3.46
17.952,2.93,-0.03,1.86,3.47
17.962,1.89,0.62,1.92,2.77
17.972,1.09,1.21,1.44,2.18
17.982,1.00,1.75,0.98,2.24
17.992,1.73,2.30,1.27,3.15
18.002,1.93,2.82,2.54,4.25
18.012,1.88,3.17,4.12,5.53
18.022,1.11,2.79,4.84,5.70
18.032,-0.25,1.76,4.94,5.25
18.043,-1.01,0.15,4.58,4.69
18.052,-0.74,-2.32,3.57,4.32
18.062,1.69,-4.84,1.47,5.33
18.072,4.63,-6.10,-0.78,7.70
18.082,6.66,-5.60,-2.78,9.13
18.092,7.51,-3.67,-4.40,9.45
18.102,6.05,-0.79,-4.99,7.88
18.112,2.99,2.24,-5.11,6.33
18.123,-0.34,4.51,-5.07,6.80
18.132,-2.89,5.26,-4.73,7.64
18.142,-4.15,4.38,-3.85,7.16
18.152,-3.88,2.41,-2.39,5.16
18.162,-2.42,0.16,-0.89,2.58
18.172,-0.28,-1.99,0.18,2.02
18.182,1.84,-3.62,0.69,4.11
18.192,3.16,-4.15,0.75,5.27
18.203,3.42,-3.46,0.62,4.91
18.213,4.14,-1.94,0.54,4.60
18.222,2.81,-0.17,-0.40,2.84
18.233,0.91,1.41,-0.96,1.93
18.243,-0.91,2.64,-1.11,3.00
18.253,-2.79,3.34,-1.09,4.49
18.262,-4.10,3.36,-1.14,5.42
18.273,-4.76,2.72,-1.30,5.63
18.283,-4.85,1.63,-1.43,5.31
18.292,-4.44,0.30,-1.52,4.70
18.303,-3.80,-0.97,-1.38,4.15
18.313,-3.20,-1.85,-0.94,3.81
18.323,-2.64,-2.31,-0.19,3.51
18.333,-2.27,-2.44,0.32,3.35
18.343,-2.32,-2.23,0.56,3.27
18.353,-2.42,-1.75,0.64,3.06
18.363,-2.64,-1.12,0.66,2.95
18.372,-2.87,-0.58,0.63,2.99
18.383,-2.68,-0.26,0.48,2.74
18.393,-2.34,-0.20,0.17,2.35
18.403,-2.02,-0.29,-0.08,2.04
18.413,-1.39,-0.42,-0.14,1.46
18.423,-0.64,-0.50,-0.02,0.81
18.433,0.01,-0.42,0.23,0.48
18.443,0.65,-0.25,0.52,0.87
18.453,0.95,-0.21,0.82,1.27
18.463,0.96,-0.39,1.09,1.50
18.473,0.93,-0.80,1.24,1.74
18.483,1.02,-1.19,1.42,2.11
18.493,1.25,-1.21,1.62,2.38
18.503,1.34,-1.05,1.86,2.52
18.513,1.48,-1.12,2.04,2.76
18.523,1.69,-1.39,2.34,3.20
18.533,1.75,-1.70,3.09,3.93
18.543,1.76,-1.92,3.91,4.71
18.553,1.57,-1.81,4.32,4.94
18.563,1.10,-1.28,4.14,4.47
18.573,0.59,-0.39,3.28,3.36
18.583,0.70,1.37,1.74,2.32
18.593,2.44,3.69,0.40,4.45
18.603,4.06,4.56,-0.08,6.11
18.613,3.68,3.82,-1.51,5.52
18.623,3.19,2.47,-3.43,5.30
18.633,2.31,0.94,-4.98,5.57
18.643,1.27,-0.66,-6.03,6.20
18.653,0.26,-1.84,-5.97,6.25
18.663,-0.34,-2.04,-5.69,6.05
18.673,-0.10,-1.15,-5.55,5.67
18.683,0.78,0.36,-5.19,5.26
18.693,1.50,1.92,-3.93,4.62
18.703,1.51,2.87,-1.86,3.74
18.713,1.11,2.99,0.06,3.19
18.723,1.03,2.05,1.07,2.53
18.733,1.29,0.45,1.20,1.82
18.743,1.35,-1.26,0.93,2.07
18.753,1.26,-2.62,0.68,2.98
18.763,0.26,-3.33,0.27,3.35
18.773,-0.85,-3.09,-0.07,3.21
18.783,-0.99,-2.14,-0.15,2.36
18.793,-1.62,-1.04,-0.73,2.06
18.803,-2.35,0.01,-0.76,2.47
18.813,-2.66,0.83,-0.40,2.82
18.823,-3.25,1.20,-0.02,3.46
18.833,-3.73,1.27,0.37,3.96
18.843,-3.94,1.12,0.52,4.12
18.853,-3.59,0.69,0.33,3.67
18.863,-3.11,0.18,-0.11,3.12
18.873,-2.66,-0.16,-0.31,2.68
18.883,-2.28,-0.24,-0.14,2.30
18.893,-2.05,-0.04,0.20,2.06
18.903,-2.05,0.38,0.71,2.21
18.913,-2.13,0.85,0.83,2.44
18.923,-2.18,1.26,0.62,2.59
18.933,-2.21,1.61,0.51,2.78
18.943,-2.11,1.82,0.29,2.80
18.953,-1.86,1.88,0.19,2.65
18.963,-1.45,1.79,0.28,2.32
18.973,-0.82,1.53,0.25,1.75
18.983,-0.04,1.15,0.16,1.16
18.993,0.77,0.78,0.15,1.11
19.003,1.74,0.66,0.45,1.91
19.013,2.34,0.90,1.06,2.73
19.023,2.28,1.38,1.80,3.21
19.033,1.47,1.68,2.02,3.01
19.043,0.35,1.67,1.53,2.29
19.053,-0.28,1.62,0.85,1.85
19.063,-0.01,1.56,0.63,1.68
19.073,0.84,1.70,1.49,2.41
19.083,1.30,2.00,2.83,3.70
19.093,0.88,2.22,4.00,4.66
19.103,-0.30,2.14,4.40,4.90
19.113,-1.46,1.51,4.16,4.66
19.123,-1.60,-0.06,3.50,3.85
19.133,0.04,-2.15,2.37,3.20
19.143,2.49,-4.06,0.39,4.77
19.153,4.77,-5.21,-2.91,7.64
19.163,6.44,-4.93,-5.54,9.82
19.173,6.70,-3.06,-5.96,9.47
19.183,5.41,-0.53,-4.98,7.37
19.193,3.07,1.35,-3.97,5.20
19.203,0.93,2.10,-3.56,4.24
19.213,-0.30,2.05,-2.82,3.50
19.223,-0.72,1.64,-1.84,2.57
19.233,-0.39,1.30,-0.88,1.62
19.243,0.42,0.94,-0.08,1.03
19.253,1.40,0.61,0.36,1.57
19.263,1.20,0.38,0.33,1.30
19.273,0.88,0.48,0.52,1.13
19.283,1.01,0.66,0.16,1.22
19.293,0.14,0.79,-0.61,1.01
19.303,-0.87,0.87,-1.00,1.59
19.313,-1.81,0.82,-1.10,2.27
19.323,-2.39,0.54,-1.06,2.67
19.333,-3.07,0.07,-1.18,3.29
19.343,-3.74,-0.25,-1.21,3.94
19.353,-3.83,-0.62,-1.00,4.00
19.363,-3.61,-1.00,-0.85,3.84
19.373,-3.42,-1.30,-0.53,3.69
19.383,-2.93,-1.56,-0.15,3.33
19.393,-2.54,-1.77,0.07,3.09
19.403,-2.23,-1.91,0.24,2.95
19.413,-1.81,-1.99,0.43,2.72
19.423,-1.59,-1.84,0.49,2.48
19.433,-1.38,-1.81,1.14,2.54
19.443,-0.69,-1.78,1.29,2.30
19.453,-1.19,-1.61,1.30,2.39
19.463,-1.62,-1.36,1.24,2.45
19.473,-1.65,-1.02,1.17,2.26
19.483,-1.72,-0.53,1.18,2.15
19.493,-1.45,-0.11,1.21,1.89
19.503,-1.15,0.31,0.89,1.49
19.513,-1.21,0.62,1.04,1.72
19.523,-0.69,0.65,0.84,1.27
19.533,-0.10,0.27,0.76,0.82
19.543,0.46,-0.45,0.59,0.87
19.553,1.04,-1.30,0.23,1.68
19.563,1.31,-1.64,0.07,2.09
19.573,1.81,-0.96,0.64,2.15
19.584,2.52,-0.20,1.62,3.01
19.593,1.54,0.40,2.00,2.55
19.604,0.84,0.41,2.18,2.37
19.613,0.80,-0.25,2.33,2.47
19.623,0.09,-1.06,2.20,2.44
19.633,-0.43,-1.61,1.90,2.53
19.643,0.41,-1.14,0.79,1.45
19.654,2.50,0.25,0.02,2.51
19.663,4.97,2.17,-0.74,5.48
19.674,5.92,3.64,-1.78,7.17
19.684,6.17,4.27,-4.12,8.56
19.694,4.87,3.73,-5.64,8.33
19.704,2.52,2.27,-6.65,7.47
19.714,-0.30,0.24,-5.37,5.39
19.723,-0.84,-1.17,-4.51,4.74
19.734,-1.09,-1.92,-3.09,3.80
19.744,-0.66,-2.27,-1.56,2.83
19.754,-0.22,-2.31,-0.12,2.32
19.764,0.24,-2.11,1.55,2.63
19.774,1.11,-2.14,2.11,3.20
19.783,1.95,-2.29,1.84,3.52
19.794,2.16,-2.27,1.52,3.48
19.804,1.87,-1.91,1.15,2.91
19.814,1.17,-1.34,0.62,1.88
19.824,-0.41,-0.71,-0.05,0.82
19.834,-0.84,-0.27,-0.01,0.89
19.844,-2.01,-0.23,-0.73,2.15
19.854,-3.55,0.15,-1.22,3.76
19.864,-2.78,0.92,-1.16,3.15
19.874,-2.47,1.66,-1.65,3.40
19.884,-3.63,1.84,-1.51,4.34
19.894,-2.61,1.38,0.06,2.96
19.904,-2.20,0.90,-0.76,2.49
19.914,-2.22,0.23,-1.20,2.54
19.924,-1.80,0.08,-1.32,2.24
19.934,-1.83,0.31,-1.00,2.11
19.944,-1.35,0.06,0.48,1.43
19.954,-1.34,-0.62,1.09,1.84
19.964,-1.82,-1.08,0.84,2.28
19.974,-2.23,-1.27,0.56,2.63
19.984,-2.32,-0.91,0.19,2.50
19.991,-2.33,-0.92,0.21,2.51
20.001,-2.41,-0.10,0.02,2.41
20.011,-2.53,0.69,0.16,2.63
20.021,-2.54,1.18,0.47,2.84
20.031,-2.45,1.04,0.98,2.83
20.041,-2.06,0.21,1.47,2.54
20.051,-1.30,-0.71,1.35,2.00
20.061,-0.52,-1.35,0.79,1.65
20.071,0.01,-1.28,0.45,1.36
20.081,0.47,-0.52,0.28,0.76
20.091,1.27,0.70,-0.39,1.50
20.101,1.83,2.14,-0.39,2.84
20.111,1.54,3.55,-0.19,3.87
20.121,0.44,4.22,0.05,4.24
20.131,-0.18,3.48,0.69,3.55
20.141,0.25,1.68,1.42,2.21
20.151,1.00,-0.55,2.79,3.02
20.161,1.15,-2.61,4.27,5.13
20.171,0.71,-4.23,4.86,6.48
20.181,-0.27,-5.19,5.00,7.21
20.191,-1.37,-5.66,4.79,7.54
20.201,-1.56,-5.82,3.07,6.76
20.211,1.27,-5.10,-0.18,5.26
20.221,6.16,-3.04,-2.44,7.29
20.231,8.55,-0.62,-2.75,9.00
20.241,7.61,1.30,-4.77,9.08
20.251,4.34,2.42,-6.92,8.52
20.261,0.81,2.99,-6.76,7.44
20.271,-2.05,3.18,-4.96,6.23
20.281,-3.41,2.72,-2.41,4.98
20.291,-2.69,1.65,-0.45,3.19
20.301,-0.38,0.64,0.46,0.87
20.311,2.47,0.02,0.66,2.56
20.321,4.70,-0.11,0.48,4.73
20.331,5.58,0.73,0.47,5.65
20.341,5.11,2.33,0.73,5.66
20.355,2.06,4.52,0.93,5.05
20.365,0.03,4.17,0.62,4.21
20.377,-1.76,2.91,-0.05,3.40
20.385,-3.12,1.24,-0.91,3.48
20.395,-3.97,-0.41,-1.43,4.24
20.405,-4.34,-1.79,-1.58,4.96
20.415,-4.48,-2.81,-1.49,5.49
20.425,-4.44,-3.27,-1.14,5.62
20.435,-3.97,-3.19,-0.64,5.13
20.446,-3.26,-2.77,-0.28,4.29
20.455,-2.66,-2.22,-0.19,3.47
20.465,-2.55,-1.67,-0.15,3.05
20.475,-2.72,-1.15,-0.07,2.95
20.485,-2.82,-0.74,0.03,2.92
20.496,-2.94,-0.49,0.03,2.98
20.505,-2.95,-0.37,0.00,2.97
20.515,-2.79,-0.34,0.08,2.82
20.525,-2.51,-0.37,0.15,2.54
20.535,-2.11,-0.35,0.21,2.15
20.545,-1.62,-0.25,0.32,1.67
20.555,-1.09,-0.07,0.58,1.24
20.565,-0.53,0.12,0.93,1.08
20.575,-0.06,0.20,1.18,1.20
20.585,0.42,0.03,1.28,1.34
20.595,0.80,-0.52,1.27,1.58
20.605,1.09,-1.30,1.39,2.19
20.615,1.31,-1.96,1.70,2.91
20.625,1.34,-2.23,2.19,3.40
20.636,1.28,-2.17,2.88,3.82
20.646,1.26,-1.81,3.35,4.01
20.655,1.03,-1.39,3.78,4.15
20.665,0.69,-1.16,4.19,4.40
20.675,0.26,-1.10,4.01,4.16
20.686,-0.07,-0.98,2.82,2.99
20.695,1.02,0.23,0.65,1.23
20.705,3.44,1.94,-0.80,4.03
20.716,5.25,3.34,-1.70,6.45
20.728,5.62,4.17,-2.71,7.50
20.735,5.09,4.40,-4.10,7.88
20.746,4.11,3.86,-4.93,7.49
20.755,2.27,2.41,-4.78,5.82
20.766,0.23,0.72,-4.35,4.42
20.775,-0.59,-0.27,-4.37,4.42
20.786,0.05,-0.49,-4.51,4.54
20.795,0.65,-0.33,-4.08,4.14
20.805,0.64,-0.13,-1.87,1.98
20.815,0.80,0.05,1.23,1.47
20.826,1.81,-0.18,2.85,3.38
20.836,3.02,-1.12,2.75,4.24
20.846,3.53,-2.37,2.19,4.78
20.855,3.25,-3.06,1.53,4.72
20.866,2.46,-2.83,0.75,3.82
20.876,1.21,-2.03,0.00,2.36
20.886,-0.28,-1.09,-0.63,1.29
20.896,-1.74,-0.25,-1.23,2.15
20.906,-2.99,0.45,-1.57,3.41
20.916,-3.79,0.98,-1.59,4.22
20.926,-4.27,1.29,-1.40,4.68
20.936,-4.40,1.47,-1.08,4.76
20.946,-4.30,1.50,-0.78,4.62
20.956,-4.12,1.35,-0.65,4.38
20.966,-3.91,1.16,-0.60,4.13
20.976,-3.54,0.88,-0.54,3.69
20.986,-3.16,0.61,-0.78,3.31
20.996,-2.92,0.39,-0.62,3.01
21.006,-2.81,0.27,-0.33,2.84
21.016,-2.86,0.26,-0.13,2.88
21.026,-3.07,0.40,-0.07,3.09
21.036,-3.13,0.72,-0.23,3.22
21.046,-2.85,1.12,-0.55,3.11
21.056,-2.24,1.54,-0.63,2.79
21.066,-1.34,1.84,-0.34,2.30
21.076,-0.34,1.82,0.20,1.86
21.086,0.59,1.52,0.67,1.77
21.096,1.13,1.01,1.07,1.86
21.106,1.34,0.49,1.36,1.97
21.116,1.46,0.06,1.65,2.20
21.126,1.57,-0.26,1.89,2.47
21.136,1.87,-0.39,2.14,2.87
21.146,1.94,-0.14,2.31,3.02
21.156,1.26,0.56,1.92,2.36
21.166,0.27,1.53,1.49,2.16
21.176,-0.23,2.28,1.38,2.68
21.186,0.43,2.56,1.75,3.13
21.196,1.40,2.34,2.94,4.01
21.206,1.47,1.61,4.19,4.72
21.216,0.66,0.45,4.52,4.59
21.226,-0.33,-0.92,3.83,3.95
21.236,-0.93,-2.38,2.77,3.77
21.246,-0.16,-3.97,1.64,4.30
21.256,2.39,-5.11,0.40,5.65
21.266,4.95,-5.23,-1.22,7.30
21.276,7.48,-4.24,-3.74,9.38
21.286,8.84,-2.44,-5.70,10.80
21.296,7.36,-0.35,-5.80,9.38
21.306,3.63,1.67,-5.17,6.54
21.316,0.02,3.16,-4.67,5.64
21.326,-2.45,3.81,-4.27,6.23
21.336,-3.79,3.67,-3.39,6.27
21.346,-3.82,2.99,-2.03,5.26
21.356,-2.11,2.18,-0.72,3.12
21.366,0.13,1.10,0.38,1.17
21.376,1.96,-0.14,0.80,2.12
21.386,2.90,-1.06,0.68,3.16
21.396,2.94,-1.21,0.31,3.20
21.406,2.42,-0.63,0.03,2.51
21.416,1.44,0.21,-0.26,1.48
21.426,-0.21,0.98,-0.36,1.07
21.436,-1.77,1.48,-1.02,2.52
21.446,-2.93,1.79,-1.57,3.77
21.456,-3.74,1.77,-1.69,4.47
21.466,-4.20,1.57,-1.52,4.74
21.476,-4.32,1.19,-1.13,4.62
21.486,-3.87,0.62,-0.70,3.98
21.496,-3.34,-0.19,-0.37,3.37
21.506,-2.81,-1.17,-0.11,3.05
21.516,-2.46,-2.06,0.22,3.22
21.526,-2.36,-2.74,0.53,3.66
21.536,-2.30,-3.11,0.65,3.92
21.546,-2.36,-3.16,0.58,3.99
21.556,-2.49,-2.85,0.63,3.84
21.566,-2.55,-2.37,0.88,3.59
21.576,-2.41,-1.95,1.02,3.27
21.586,-2.12,-1.70,0.94,2.88
21.596,-1.36,-1.55,0.69,2.17
21.606,-0.46,-1.29,0.48,1.45
21.616,0.38,-0.82,0.48,1.03
21.626,1.03,-0.19,0.65,1.23
21.636,1.30,0.38,0.84,1.60
21.646,1.15,0.68,1.08,1.72
21.656,0.88,0.44,1.43,1.73
21.666,0.83,-0.25,1.58,1.80
21.676,0.88,-0.95,1.51,1.99
21.686,1.04,-1.19,1.67,2.29
21.696,1.08,-1.19,2.11,2.66
21.706,1.41,-1.13,2.56,3.13
21.716,1.19,-1.05,3.16,3.53
21.726,0.90,-0.59,3.87,4.02
21.736,0.60,-1.05,3.65,3.85
21.746,0.50,-1.38,3.31,3.62
21.756,0.42,-0.87,2.52,2.70
21.766,0.80,-0.15,0.35,0.89
21.776,2.14,0.61,-0.34,2.25
21.786,3.65,1.60,-0.21,3.99
21.796,4.57,2.50,-0.43,5.22
21.806,4.74,2.04,-2.49,5.73
21.816,4.13,0.93,-4.67,6.30
21.826,2.85,0.55,-4.90,5.70
21.836,0.96,0.71,-4.25,4.41
21.846,-0.94,0.45,-4.59,4.70
21.856,-1.50,0.41,-5.17,5.40
21.866,-1.46,0.69,-5.03,5.29
21.876,-1.02,1.04,-3.93,4.19
21.886,-0.40,1.12,-2.42,2.69
21.896,0.31,0.94,-0.79,1.27
21.906,1.06,0.46,0.61,1.30
21.916,1.37,-0.22,1.46,2.01
21.926,1.40,-1.02,1.81,2.51
21.936,1.17,-1.80,1.71,2.75
21.946,0.49,-2.26,1.03,2.54
21.956,-0.44,-2.22,-0.05,2.26
21.966,-1.28,-1.58,-0.95,2.24
21.976,-1.98,-0.51,-1.40,2.47
21.986,-2.38,0.57,-1.46,2.85
21.996,-2.46,1.25,-1.33,3.06
22.006,-2.90,1.37,-1.32,3.47
22.016,-3.40,1.33,-1.20,3.84
22.026,-2.89,1.21,-0.97,3.28
22.036,-2.46,1.10,-0.40,2.72
22.047,-1.54,1.07,-0.52,1.95
22.056,-2.62,0.49,-0.48,2.71
22.067,-1.54,0.49,-0.41,1.67
22.076,-0.79,0.60,-0.01,1.00
22.086,-2.92,0.64,-0.25,3.00
22.096,-2.58,0.80,-0.19,2.71
22.106,-2.48,0.83,-0.02,2.62
22.116,-1.77,0.88,0.11,1.98
22.127,-0.96,0.86,0.45,1.36
22.136,-0.64,0.86,0.72,1.29
22.146,-0.60,0.76,0.93,1.34
22.157,-0.58,0.56,0.92,1.22
22.166,-0.51,0.36,0.77,1.00
22.177,-0.12,0.21,0.48,0.54
22.187,0.27,0.07,0.46,0.54
22.196,0.18,0.09,0.87,0.89
22.206,-0.05,0.19,1.41,1.42
22.217,-0.03,0.10,1.33,1.33
22.227,0.83,0.32,1.21,1.50
22.236,1.30,0.93,1.53,2.21
22.247,0.93,1.45,2.00,2.64
22.257,0.65,1.70,1.87,2.61
22.266,1.07,1.59,1.40,2.37
22.276,1.79,1.44,1.07,2.53
22.287,2.09,1.40,1.57,2.97
22.297,1.73,1.11,2.58,3.30
22.307,0.59,0.52,3.37,3.46
22.317,-1.19,-0.39,3.53,3.74
22.327,-1.92,-1.97,3.32,4.31
22.337,-0.31,-3.09,1.98,3.69
22.347,1.39,-3.21,0.20,3.51
22.357,4.01,-3.07,-1.78,5.35
22.367,6.38,-2.36,-4.38,8.09
22.377,6.93,-1.70,-5.96,9.30
22.387,4.94,-0.54,-5.88,7.69
22.397,2.70,-0.01,-4.46,5.21
22.407,0.71,0.65,-4.78,4.88
22.417,-1.49,2.26,-2.91,3.97
22.427,-3.05,2.30,-1.48,4.09
22.437,-2.82,1.57,-0.63,3.29
22.447,-0.86,0.86,-0.16,1.23
22.457,1.37,0.44,-0.27,1.47
22.467,2.64,0.49,-0.11,2.69
22.477,3.27,0.88,0.18,3.39
22.487,2.86,1.23,-0.21,3.12
22.497,1.45,1.28,-0.89,2.13
22.507,0.32,1.22,-1.17,1.72
22.517,-1.44,1.00,-1.11,2.08
22.527,-3.61,0.31,-1.26,3.83
22.537,-3.74,-0.18,-1.04,3.89
22.547,-3.91,-0.60,-0.97,4.07
22.557,-3.69,-0.95,-0.88,3.91
22.567,-3.26,-1.23,-0.87,3.60
22.577,-2.56,-1.21,-0.83,2.95
22.587,-2.52,-1.11,-0.70,2.84
22.597,-2.06,-0.98,-0.63,2.37
22.607,-1.70,-0.80,-0.44,1.93
22.617,-1.68,-0.63,-0.08,1.79
22.627,-1.41,-0.70,0.31,1.61
22.637,-1.30,-1.13,0.53,1.80
22.647,-0.96,-1.53,0.68,1.93
22.657,-0.96,-1.77,0.99,2.25
22.667,-1.20,-1.85,1.33,2.58
22.677,-1.28,-1.60,1.72,2.67
22.687,-1.28,-1.32,1.99,2.71
22.697,-0.90,-1.25,1.96,2.50
22.707,-0.38,-1.04,1.72,2.04
22.717,0.35,-1.07,1.60,1.96
22.728,0.64,-0.86,1.25,1.65
22.737,-1.16,0.04,1.15,1.63
22.747,-1.29,0.93,1.07,1.92
22.757,-0.66,1.09,0.78,1.49
22.767,0.12,0.79,0.65,1.03
22.777,0.65,0.01,0.92,1.12
22.787,1.95,-0.22,1.36,2.39
22.797,1.56,-0.49,1.59,2.28
22.807,1.66,-1.27,1.71,2.70
22.817,1.70,-1.69,2.06,3.16
22.827,1.01,-2.27,2.66,3.64
22.837,1.13,-2.59,3.20,4.27
22.847,0.28,-2.16,3.73,4.32
22.857,-0.28,-1.52,3.72,4.03
22.867,0.29,-1.20,2.74,3.01
22.877,2.82,0.29,1.31,3.12
22.887,4.46,2.28,0.99,5.11
22.897,3.03,3.03,-0.79,4.36
22.907,3.23,2.64,-3.52,5.46
22.917,2.65,2.03,-5.57,6.49
22.927,1.24,2.05,-5.98,6.44
22.937,-0.35,2.01,-5.40,5.77
22.947,-1.84,2.11,-5.07,5.80
22.957,-1.80,2.31,-5.61,6.33
22.967,0.16,1.97,-6.22,6.53
22.977,1.19,1.42,-5.59,5.89
22.987,1.98,0.64,-3.82,4.35
22.997,1.59,-0.15,-2.14,2.67
23.007,1.21,-0.82,-0.66,1.61
23.017,1.29,-0.85,0.37,1.59
23.027,1.12,-1.06,0.97,1.83
23.037,0.95,-1.36,1.47,2.22
23.047,0.57,-1.65,2.11,2.73
23.057,-0.08,-1.82,1.53,2.38
23.067,-0.19,-2.00,0.33,2.03
23.077,-0.46,-1.72,-0.20,1.79
23.087,-0.95,-0.92,-0.52,1.42
23.097,-1.44,-0.04,-0.68,1.59
23.107,-1.55,0.70,-0.67,1.83
23.117,-1.51,1.52,-0.13,2.15
23.127,-2.00,1.61,0.04,2.56
23.137,-2.52,1.02,0.29,2.74
23.147,-2.85,-0.32,-0.58,2.93
23.157,-2.63,0.11,0.15,2.64
23.167,-2.68,0.16,-0.24,2.70
23.177,-2.54,0.07,-0.39,2.57
23.187,-1.92,0.20,-0.20,1.94
23.197,-1.32,0.31,0.05,1.35
23.207,-1.64,0.72,0.14,1.79
23.217,-2.18,1.31,0.38,2.57
23.227,-2.85,2.10,0.29,3.55
23.237,-3.32,2.62,0.16,4.23
23.247,-3.95,1.46,-0.26,4.22
23.257,-2.69,0.20,-0.70,2.79
23.267,-1.07,-0.53,-0.09,1.19
23.277,3.33,-0.45,1.05,3.52
23.287,2.01,-0.82,0.91,2.36
23.297,1.77,-0.90,1.40,2.43
23.307,1.99,-1.19,2.25,3.22
23.317,1.51,-1.30,2.50,3.20
23.328,0.60,-0.65,2.63,2.77
23.338,-0.13,0.19,1.77,1.78
23.347,0.11,0.87,0.44,0.98
23.357,0.24,1.45,-0.25,1.49
23.367,-0.24,1.94,-0.64,2.06
23.377,-0.71,2.34,-0.57,2.51
23.387,-0.34,2.88,0.56,2.95
23.397,0.99,2.73,2.56,3.87
23.407,1.25,1.72,3.88,4.42
23.417,0.43,0.23,4.19,4.22
23.427,-0.57,-1.37,3.66,3.95
23.437,-1.61,-2.75,2.75,4.21
23.447,-1.45,-3.93,1.45,4.43
23.457,0.86,-3.96,0.24,4.06
23.467,4.20,-2.30,-0.67,4.83
23.477,6.46,0.13,-3.00,7.12
23.487,6.91,2.25,-4.89,8.76
23.497,5.22,3.32,-5.61,8.35
23.507,2.03,3.18,-5.82,6.94
23.517,-0.93,2.66,-5.67,6.33
23.527,-2.18,1.88,-5.06,5.82
23.537,-1.04,1.32,-4.51,4.82
23.548,0.94,0.87,-3.73,3.95
23.557,2.77,0.58,-2.60,3.84
23.567,4.14,0.82,-1.53,4.49
23.577,5.01,1.17,-0.75,5.20
23.588,4.49,1.84,-0.81,4.92
23.598,2.38,2.36,-0.99,3.50
23.608,1.27,2.10,-1.08,2.68
23.617,0.17,1.34,-1.69,2.16
23.627,-0.71,0.33,-1.82,1.98
23.637,-1.42,-0.75,-1.57,2.25
23.648,-2.19,-0.98,-1.36,2.76
23.658,-1.91,-1.10,-1.29,2.55
23.667,-1.97,-1.27,-1.99,3.08
23.677,-1.41,-0.42,-2.03,2.51
23.688,-0.77,0.34,-2.38,2.53
23.697,-0.66,1.04,-2.42,2.71
23.708,-0.69,1.17,-2.38,2.74
23.718,-0.69,1.37,-2.52,2.95
23.728,-1.99,0.85,-2.31,3.17
23.737,-1.89,0.28,-1.76,2.60
23.748,-2.22,-0.24,-1.23,2.55
23.757,-2.11,-0.48,-0.83,2.31
23.768,-1.79,-0.54,-0.45,1.92
23.777,-1.29,-0.70,-0.41,1.53
23.788,-0.94,-0.95,-0.66,1.48
23.798,-0.75,-0.82,-0.89,1.42
23.808,-0.54,-0.71,-1.13,1.44
23.818,-0.38,-0.61,-1.32,1.50
23.828,-0.29,-0.70,-1.25,1.46
23.838,-0.12,-0.56,-0.95,1.10
23.848,-0.17,-0.35,-0.77,0.86
23.858,-0.03,-0.16,-0.94,0.96
23.868,0.35,0.00,-1.38,1.42
23.878,0.29,-0.18,-1.94,1.97
23.888,0.39,-0.04,-1.79,1.84
23.898,0.01,0.22,-1.29,1.30
23.908,-0.64,0.40,-0.63,0.98
23.918,-0.65,0.18,-0.20,0.71
23.928,-0.56,-0.67,-0.39,0.96
23.938,-0.36,-2.25,-0.77,2.41
23.948,-0.43,-3.91,-1.23,4.12
23.958,-0.66,-4.51,-1.27,4.73
23.968,-0.43,-3.50,-0.92,3.64
23.978,0.83,-1.50,-0.28,1.74
23.988,1.04,-0.05,-0.14,1.05
23.998,0.77,1.49,-0.29,1.71
24.008,0.55,2.24,-0.35,2.33
24.018,0.84,2.12,-0.50,2.33
24.028,1.04,1.40,-0.93,1.97
24.038,0.80,0.66,-1.34,1.69
24.048,0.12,0.24,-1.20,1.23
24.058,-0.55,0.19,-0.55,0.80
24.068,-0.44,0.25,-0.10,0.52
24.078,-0.28,0.17,-0.24,0.40
24.088,0.22,0.12,-0.60,0.64
24.098,0.97,0.45,-0.50,1.18
24.108,1.91,1.49,-0.08,2.42
24.118,2.83,2.96,0.50,4.12
24.128,3.40,4.19,1.14,5.51
24.138,3.57,4.37,1.40,5.81
24.148,2.90,3.37,0.92,4.54
24.158,1.62,1.92,0.04,2.51
24.168,0.40,0.90,-0.75,1.24
24.178,-0.25,0.66,-0.90,1.14
24.188,-0.46,0.78,-0.55,1.06
24.198,-0.90,0.95,-0.43,1.38
24.208,-1.33,1.06,-0.38,1.75
24.218,-1.70,0.92,-0.46,1.99
24.228,-1.91,0.92,-0.33,2.15
24.238,-1.52,1.17,-0.01,1.92
24.248,-0.85,1.34,0.50,1.66
24.258,-0.74,1.53,0.72,1.85
24.268,-0.76,1.50,0.70,1.82
24.278,-0.70,1.24,0.51,1.51
24.288,-0.88,1.01,0.29,1.37
24.298,-0.94,0.85,0.16,1.28
24.308,-0.91,0.80,0.02,1.21
24.318,-0.82,1.08,-0.12,1.36
24.328,-0.56,1.41,-0.14,1.52
24.338,-0.01,1.51,0.01,1.51
24.348,0.43,1.41,0.08,1.48
24.358,0.63,1.22,0.05,1.37
24.368,0.68,1.21,0.15,1.39
24.378,0.90,1.21,0.21,1.52
24.388,0.94,1.24,0.17,1.57
24.398,0.91,1.11,0.19,1.45
24.408,0.92,0.84,0.14,1.26
24.418,0.57,0.53,0.07,0.78
24.428,0.39,0.50,0.16,0.66
24.438,0.03,0.60,0.26,0.66
24.448,-0.23,0.76,0.32,0.85
24.458,-0.47,0.83,0.22,0.98
24.468,-0.48,0.83,0.17,0.98
24.478,-0.36,0.77,-0.04,0.85
24.488,-0.26,0.71,-0.09,0.76
24.498,-0.30,0.73,-0.12,0.80
24.508,-0.38,0.90,-0.11,0.99
24.518,-0.22,1.12,-0.07,1.14
24.528,-0.13,1.23,-0.17,1.25
24.538,-0.03,1.29,-0.24,1.31
24.548,0.11,1.14,-0.30,1.18
24.558,0.22,0.94,-0.34,1.02
24.568,-0.59,0.81,-0.36,1.07
24.578,-0.15,0.90,0.02,0.91
24.588,-0.39,0.98,-0.11,1.06
24.598,-0.45,1.05,0.16,1.15
24.608,-0.09,1.05,0.36,1.11
24.618,-0.35,0.65,0.07,0.74
24.628,-0.29,0.30,-0.03,0.42
24.638,0.01,0.43,0.17,0.46
24.648,0.23,0.66,0.36,0.78
24.658,0.21,0.64,0.30,0.74
24.668,-0.06,0.34,0.17,0.38
24.678,-0.46,0.14,0.02,0.48
24.688,-0.90,0.16,0.01,0.91
24.698,-1.10,0.30,-0.06,1.15
24.709,-0.94,0.42,-0.12,1.04
24.718,-0.51,0.39,-0.16,0.67
24.728,-0.16,0.18,-0.25,0.35
24.738,0.00,0.02,-0.31,0.31
24.748,0.22,0.15,-0.12,0.29
24.758,0.44,0.34,0.16,0.58
24.768,0.75,0.48,0.37,0.96
24.778,0.56,0.26,0.29,0.68
24.788,0.01,0.10,0.10,0.15
24.798,-0.33,0.34,0.22,0.52
24.808,-0.48,0.45,0.37,0.76
24.819,-0.33,0.35,0.32,0.58
24.828,-0.05,0.22,0.06,0.23
24.838,0.04,0.14,-0.03,0.14
24.848,0.04,0.30,0.05,0.31
24.858,-0.07,0.38,-0.00,0.38
24.868,-0.16,0.36,-0.10,0.41
24.878,-0.13,0.38,-0.07,0.40
24.888,-0.11,0.22,-0.03,0.25
24.898,-0.27,0.06,-0.06,0.28
24.908,-0.39,0.16,-0.04,0.42
24.918,-0.27,0.23,-0.07,0.36
24.928,-0.20,0.31,-0.15,0.40
24.939,-0.19,0.39,-0.23,0.49
24.949,-0.15,0.53,-0.18,0.58
24.959,-0.05,0.65,-0.12,0.66
24.968,0.13,0.59,-0.15,0.62
24.978,0.31,0.39,-0.18,0.53
24.988,0.38,0.36,-0.12,0.54
24.998,0.22,0.35,0.01,0.41
25.008,-0.14,0.30,0.01,0.33
25.018,-0.47,0.27,-0.03,0.55
25.028,-0.47,0.24,0.07,0.53
25.039,-0.46,0.28,0.16,0.56
25.049,-0.38,0.28,0.19,0.51
25.059,-0.25,0.19,0.16,0.35
25.069,-0.18,0.16,0.11,0.26
25.079,-0.28,0.23,0.24,0.44
25.089,-0.46,0.25,0.16,0.54
25.098,-0.19,0.25,0.22,0.38
25.108,-0.30,0.15,0.22,0.40
25.118,-0.62,-0.10,-0.45,0.77
25.129,-0.16,0.25,-0.27,0.40
25.139,0.24,0.34,0.08,0.43
25.149,0.36,0.42,0.43,0.70
25.158,0.36,0.36,0.49,0.70
25.169,0.15,0.21,0.34,0.43
25.179,-0.30,0.32,0.17,0.47
25.189,-0.37,0.81,0.00,0.89
