time,ax,ay,az,atotal
0.000,-0.09,-0.00,-0.06,0.11
0.010,-0.11,0.01,-0.04,0.12
0.020,-0.09,0.02,-0.04,0.10
0.030,-0.09,0.04,-0.05,0.11
0.040,-0.10,0.06,-0.05,0.12
0.050,-0.11,0.06,-0.06,0.14
0.060,-0.10,0.03,-0.05,0.11
0.070,-0.08,0.02,-0.04,0.09
0.080,-0.07,-0.00,-0.02,0.08
0.090,-0.07,-0.01,-0.04,0.08
0.100,-0.08,-0.03,-0.03,0.09
0.110,-0.09,-0.01,-0.06,0.11
0.120,-0.11,0.01,-0.05,0.12
0.130,-0.15,-0.00,-0.05,0.16
0.140,-0.15,0.02,-0.05,0.15
0.150,-0.12,0.03,-0.05,0.14
0.160,-0.13,0.02,-0.06,0.15
0.170,-0.12,0.02,-0.08,0.15
0.180,-0.10,0.04,-0.08,0.13
0.190,-0.09,0.05,-0.07,0.12
0.200,-0.09,0.05,-0.08,0.13
0.210,-0.09,0.07,-0.09,0.15
0.220,-0.11,0.08,-0.10,0.17
0.230,-0.12,0.09,-0.08,0.16
0.240,-0.11,0.09,-0.05,0.15
0.250,-0.10,0.02,-0.02,0.10
0.260,-0.06,-0.04,-0.03,0.08
0.270,-0.01,-0.05,-0.05,0.07
0.280,0.02,-0.05,-0.02,0.06
0.290,0.03,-0.08,0.01,0.09
0.300,0.02,-0.12,0.04,0.13
0.310,-0.04,-0.16,0.06,0.17
0.320,-0.05,-0.17,0.05,0.18
0.330,-0.03,-0.16,0.04,0.17
0.340,-0.04,-0.15,0.04,0.16
0.350,-0.06,-0.17,0.04,0.19
0.360,-0.08,-0.18,0.01,0.20
0.370,-0.09,-0.19,-0.01,0.21
0.380,-0.13,-0.17,-0.04,0.22
0.390,-0.14,-0.14,-0.07,0.21
0.400,-0.16,-0.11,-0.07,0.21
0.410,-0.13,-0.07,-0.11,0.19
0.420,-0.08,-0.05,-0.15,0.18
0.430,-0.05,-0.03,-0.18,0.19
0.440,-0.03,-0.01,-0.20,0.20
0.450,-0.02,-0.03,-0.16,0.17
0.460,-0.07,-0.04,-0.15,0.17
0.470,-0.13,-0.06,-0.14,0.20
0.480,-0.21,-0.07,-0.12,0.25
0.491,-0.29,-0.10,-0.14,0.33
0.501,-0.31,-0.13,-0.11,0.35
0.510,-0.32,-0.14,-0.07,0.35
0.520,-0.27,-0.15,-0.04,0.31
0.531,-0.22,-0.18,-0.03,0.29
0.540,-0.14,-0.18,-0.01,0.23
0.551,-0.04,-0.16,-0.01,0.16
0.560,-0.00,-0.15,-0.00,0.15
0.571,0.02,-0.14,0.01,0.14
0.581,-0.02,-0.13,-0.02,0.14
0.591,-0.05,-0.15,-0.04,0.16
0.600,-0.06,-0.15,-0.09,0.18
0.611,-0.13,-0.09,-0.14,0.21
0.621,-0.17,-0.00,-0.15,0.23
0.631,-0.24,0.09,-0.19,0.32
0.641,-0.34,0.19,-0.24,0.46
0.650,-0.40,0.21,-0.21,0.50
0.661,-0.39,0.20,-0.14,0.46
0.671,-0.31,0.12,-0.12,0.35
0.681,-0.17,0.05,-0.13,0.22
0.691,-0.09,-0.05,-0.18,0.20
0.701,-0.03,-0.16,-0.24,0.29
0.711,0.02,-0.23,-0.31,0.39
0.721,0.06,-0.25,-0.40,0.47
0.731,0.12,-0.21,-0.37,0.44
0.741,0.18,-0.14,-0.25,0.34
0.751,0.15,-0.10,-0.09,0.20
0.761,0.16,-0.07,0.04,0.18
0.771,0.18,-0.02,0.16,0.24
0.781,0.12,-0.04,0.23,0.27
0.791,-0.05,-0.10,0.38,0.39
0.801,-0.31,-0.22,0.49,0.62
0.811,-0.59,-0.36,0.58,0.90
0.821,-0.75,-0.49,0.69,1.13
0.831,-0.85,-0.59,0.87,1.35
0.841,-0.88,-0.76,1.04,1.56
0.851,-0.77,-0.97,1.23,1.75
0.861,-0.53,-1.21,1.33,1.88
0.871,-0.23,-1.39,1.35,1.95
0.881,0.11,-1.55,1.32,2.04
0.891,0.34,-1.59,1.33,2.10
0.901,0.44,-1.47,1.28,2.00
0.911,0.43,-1.31,1.22,1.84
0.921,0.37,-1.11,1.13,1.63
0.931,0.20,-0.93,1.08,1.44
0.941,0.04,-0.81,1.01,1.29
0.951,-0.11,-0.74,0.93,1.19
0.961,-0.15,-0.68,0.86,1.11
0.971,-0.17,-0.66,0.80,1.05
0.981,-0.24,-0.65,0.74,1.01
0.991,-0.32,-0.61,0.71,0.99
1.001,-0.36,-0.56,0.68,0.95
1.011,-0.35,-0.54,0.66,0.92
1.021,-0.25,-0.52,0.61,0.84
1.031,-0.24,-0.45,0.58,0.77
1.041,-0.34,-0.37,0.60,0.79
1.051,-0.43,-0.29,0.61,0.80
1.061,-0.48,-0.22,0.63,0.82
1.071,-0.52,-0.19,0.65,0.85
1.081,-0.54,-0.27,0.70,0.92
1.091,-0.50,-0.43,0.71,0.97
1.101,-0.42,-0.55,0.66,0.95
1.111,-0.37,-0.57,0.61,0.91
1.121,-0.33,-0.58,0.53,0.85
1.131,-0.31,-0.57,0.47,0.80
1.141,-0.33,-0.57,0.44,0.80
1.151,-0.32,-0.50,0.42,0.72
1.161,-0.32,-0.35,0.42,0.64
1.171,-0.40,-0.23,0.44,0.64
1.181,-0.47,-0.16,0.47,0.68
1.191,-0.48,-0.11,0.49,0.69
1.201,-0.49,-0.11,0.51,0.72
1.211,-0.49,-0.09,0.53,0.73
1.221,-0.53,-0.05,0.61,0.81
1.231,-0.59,-0.05,0.61,0.85
1.241,-0.62,-0.04,0.68,0.92
1.251,-0.60,-0.07,0.74,0.95
1.261,-0.54,-0.14,0.77,0.95
1.271,-0.49,-0.19,0.81,0.96
1.281,-0.44,-0.24,0.86,0.99
1.291,-0.45,-0.19,0.87,1.00
1.301,-0.49,-0.09,0.88,1.02
1.311,-0.55,0.02,0.90,1.05
1.321,-0.51,0.06,0.87,1.01
1.331,-0.48,0.05,0.83,0.96
1.341,-0.46,0.01,0.81,0.93
1.351,-0.41,-0.03,0.81,0.91
1.361,-0.40,-0.13,0.90,1.00
1.371,-0.35,-0.23,1.00,1.08
1.381,-0.29,-0.28,1.12,1.19
1.391,-0.29,-0.34,1.18,1.27
1.401,-0.29,-0.43,1.36,1.45
1.411,-0.28,-0.53,1.52,1.63
1.421,-0.27,-0.64,1.62,1.76
1.431,-0.28,-0.69,1.77,1.92
1.441,-0.31,-0.73,1.88,2.04
1.451,-0.38,-0.73,1.98,2.14
1.461,-0.47,-0.70,2.06,2.23
1.471,-0.48,-0.67,2.14,2.29
1.481,-0.46,-0.66,2.22,2.36
1.491,-0.51,-0.70,2.32,2.48
1.501,-0.50,-0.75,2.34,2.51
1.511,-0.46,-0.73,2.29,2.45
1.521,-0.25,-0.67,2.25,2.36
1.531,0.26,-0.44,2.09,2.15
1.541,1.08,0.05,1.60,1.93
1.551,1.95,0.56,1.13,2.32
1.561,2.63,0.90,0.89,2.92
1.571,3.04,1.13,0.57,3.29
1.581,2.93,1.53,0.06,3.30
1.591,2.19,1.86,-0.44,2.90
1.601,1.37,2.07,-0.75,2.60
1.611,1.09,2.17,-0.86,2.58
1.621,1.00,1.87,-0.81,2.27
1.631,0.74,1.16,-0.89,1.64
1.641,0.26,0.60,-0.91,1.12
1.651,-0.34,0.19,-1.04,1.11
1.661,-0.88,-0.20,-1.28,1.57
1.671,-1.15,-0.32,-1.40,1.84
1.681,-1.23,-0.30,-1.63,2.06
1.691,-0.88,-0.19,-1.86,2.07
1.701,-0.27,0.07,-2.12,2.13
1.711,0.30,0.32,-2.23,2.28
1.721,0.71,0.52,-2.26,2.43
1.731,0.74,0.70,-2.20,2.42
1.741,0.43,0.75,-1.98,2.17
1.751,-0.05,0.64,-1.69,1.81
1.761,-0.53,0.39,-1.42,1.56
1.771,-0.77,0.14,-1.18,1.41
1.781,-0.85,-0.09,-0.99,1.31
1.791,-0.92,-0.34,-0.91,1.34
1.801,-0.90,-0.47,-0.82,1.30
1.811,-0.74,-0.43,-0.75,1.13
1.821,-0.51,-0.26,-0.77,0.96
1.831,-0.42,-0.12,-0.82,0.93
1.841,-0.52,0.01,-0.81,0.96
1.851,-0.67,0.12,-0.86,1.10
1.861,-0.74,0.22,-0.84,1.14
1.871,-0.75,0.29,-0.77,1.12
1.881,-0.74,0.25,-0.71,1.06
1.891,-0.79,0.15,-0.61,1.00
1.901,-0.79,-0.02,-0.47,0.92
1.911,-0.73,-0.27,-0.38,0.86
1.921,-0.55,-0.46,-0.26,0.76
1.931,-0.28,-0.62,-0.21,0.71
1.941,-0.11,-0.71,-0.18,0.74
1.951,-0.08,-0.76,-0.14,0.78
1.961,-0.16,-0.74,-0.13,0.76
1.971,-0.26,-0.69,-0.10,0.75
1.981,-0.37,-0.66,-0.09,0.76
1.992,-0.44,-0.66,-0.08,0.80
2.001,-0.44,-0.66,-0.03,0.79
2.012,-0.39,-0.68,0.04,0.78
2.021,-0.36,-0.72,0.14,0.81
2.032,-0.28,-0.77,0.24,0.85
2.042,-0.27,-0.77,0.29,0.86
2.052,-0.30,-0.77,0.33,0.89
2.062,-0.38,-0.76,0.37,0.93
2.072,-0.51,-0.73,0.43,0.99
2.082,-0.56,-0.75,0.45,1.04
2.092,-0.59,-0.80,0.44,1.08
2.101,-0.61,-0.87,0.49,1.17
2.112,-0.59,-1.01,0.51,1.27
2.122,-0.60,-1.11,0.54,1.37
2.132,-0.55,-1.23,0.57,1.46
2.142,-0.46,-1.33,0.62,1.54
2.152,-0.52,-1.41,0.69,1.65
2.162,-0.55,-1.44,0.76,1.72
2.172,-0.55,-1.50,0.76,1.77
2.182,-0.43,-1.58,0.65,1.76
2.192,-0.32,-1.68,0.55,1.80
2.202,-0.21,-1.84,0.45,1.90
2.212,-0.00,-1.86,0.34,1.89
2.222,0.13,-1.68,0.32,1.72
2.232,0.26,-1.46,0.36,1.53
2.242,0.42,-1.29,0.39,1.41
2.252,0.48,-1.19,0.46,1.36
2.262,0.47,-1.11,0.60,1.35
2.272,0.40,-1.09,0.79,1.40
2.282,0.32,-1.12,0.92,1.48
2.292,0.27,-1.17,1.10,1.63
2.302,0.32,-1.08,1.23,1.67
2.312,0.41,-0.94,1.22,1.60
2.322,0.55,-0.77,1.24,1.56
2.332,0.83,-0.57,1.30,1.65
2.342,1.22,-0.56,1.26,1.84
2.352,1.53,-0.72,1.16,2.05
2.362,1.78,-0.85,0.99,2.20
2.372,2.10,-0.88,0.75,2.40
2.382,2.45,-1.01,0.13,2.65
2.392,2.41,-0.97,-0.57,2.66
2.402,2.24,-0.75,-1.21,2.66
2.412,2.06,-0.42,-1.79,2.76
2.422,1.74,0.29,-2.20,2.82
2.432,1.20,1.42,-2.16,2.85
2.442,0.50,2.58,-2.01,3.31
2.452,-0.05,3.44,-1.88,3.92
2.462,-0.42,3.80,-1.51,4.12
2.472,-0.66,3.45,-1.07,3.67
2.482,-0.82,2.41,-0.72,2.65
2.492,-0.87,1.32,-0.38,1.62
2.502,-0.80,0.55,-0.16,0.98
2.512,-0.69,0.14,-0.09,0.71
2.522,-0.57,-0.02,-0.09,0.57
2.532,-0.41,-0.13,0.01,0.43
2.542,-0.08,-0.22,-0.11,0.26
2.552,0.39,-0.26,-0.19,0.51
2.562,0.63,-0.21,-0.19,0.70
2.572,0.74,-0.05,-0.20,0.77
2.582,0.53,0.21,-0.18,0.60
2.592,-0.05,0.44,-0.09,0.45
2.602,-0.60,0.62,-0.00,0.86
2.612,-0.98,0.70,-0.00,1.20
2.622,-1.24,0.68,-0.02,1.41
2.632,-1.35,0.59,0.02,1.47
2.642,-1.26,0.42,0.06,1.33
2.652,-1.03,0.20,0.12,1.06
2.662,-0.77,0.04,0.12,0.78
2.672,-0.58,-0.04,0.11,0.59
2.682,-0.49,-0.03,0.13,0.51
2.692,-0.52,0.01,0.18,0.55
2.702,-0.65,0.07,0.25,0.70
2.712,-0.81,0.12,0.31,0.88
2.722,-0.96,0.10,0.30,1.01
2.732,-1.21,0.15,0.27,1.25
2.742,-1.41,0.20,0.31,1.46
2.752,-1.56,0.22,0.35,1.61
2.762,-1.56,0.21,0.36,1.62
2.772,-1.47,0.27,0.38,1.54
2.782,-1.32,0.31,0.33,1.40
2.792,-1.19,0.35,0.25,1.26
2.802,-1.13,0.33,0.28,1.21
2.812,-1.22,0.21,0.29,1.27
2.822,-1.32,0.09,0.38,1.38
2.832,-1.44,-0.04,0.53,1.54
2.842,-1.59,-0.20,0.70,1.75
2.852,-1.64,-0.31,0.89,1.89
2.862,-1.59,-0.40,1.07,1.96
2.872,-1.49,-0.42,1.13,1.92
2.882,-1.33,-0.44,1.15,1.81
2.892,-1.06,-0.37,1.16,1.61
2.902,-0.74,-0.25,1.16,1.40
2.912,-0.49,-0.10,1.20,1.30
2.922,-0.25,-0.01,1.31,1.34
2.932,-0.02,0.04,1.30,1.31
2.942,0.25,0.23,1.22,1.26
2.952,0.40,0.42,1.35,1.47
2.962,0.47,0.27,1.65,1.73
2.972,0.50,-0.06,1.82,1.89
2.982,0.79,-0.32,1.99,2.16
2.992,1.02,-0.65,2.35,2.64
3.002,0.89,-1.14,2.81,3.15
3.012,0.67,-1.54,3.16,3.58
3.022,0.71,-1.82,3.26,3.80
3.032,1.32,-1.97,3.02,3.84
3.042,2.74,-1.48,2.26,3.84
3.052,4.01,-0.80,1.57,4.38
3.062,4.58,-0.30,1.28,4.77
3.072,4.56,0.59,0.91,4.68
3.082,4.19,1.89,0.18,4.60
3.092,2.75,2.71,-0.77,3.94
3.102,1.23,3.05,-1.67,3.69
3.112,1.03,3.30,-1.40,3.73
3.122,0.56,2.94,-1.69,3.44
3.132,-0.59,2.41,-1.80,3.07
3.142,-1.77,1.95,-1.55,3.06
3.152,-2.65,1.11,-1.73,3.35
3.162,-2.98,-0.05,-1.60,3.39
3.172,-2.63,-0.95,-1.68,3.26
3.182,-1.66,-1.12,-1.95,2.79
3.192,-0.55,-0.86,-2.27,2.49
3.202,0.55,-0.16,-2.56,2.62
3.212,1.44,0.79,-2.49,2.98
3.222,1.73,1.44,-2.33,3.24
3.233,1.46,1.74,-2.16,3.14
3.242,0.78,1.79,-2.03,2.81
3.253,-0.12,1.64,-1.75,2.40
3.262,-0.78,1.30,-1.39,2.06
3.273,-1.16,0.96,-1.16,1.90
3.282,-1.41,0.64,-0.92,1.80
3.293,-1.48,0.34,-0.88,1.75
3.302,-1.35,0.07,-0.94,1.65
3.313,-1.16,-0.20,-1.06,1.58
3.323,-0.94,-0.42,-1.15,1.54
3.333,-0.82,-0.51,-1.28,1.60
3.342,-0.78,-0.44,-1.22,1.51
3.353,-0.73,-0.34,-1.20,1.44
3.362,-0.63,-0.21,-1.10,1.28
3.373,-0.61,-0.19,-0.91,1.11
3.382,-0.70,-0.35,-0.74,1.08
3.393,-0.91,-0.57,-0.62,1.24
3.402,-1.14,-0.78,-0.53,1.48
3.413,-1.26,-0.94,-0.46,1.64
3.423,-1.20,-1.07,-0.45,1.67
3.433,-0.96,-1.07,-0.37,1.48
3.443,-0.59,-0.96,-0.29,1.16
3.453,-0.28,-0.72,-0.25,0.81
3.463,-0.20,-0.48,-0.18,0.55
3.473,-0.34,-0.30,-0.12,0.47
3.483,-0.65,-0.22,-0.07,0.69
3.493,-0.92,-0.21,0.03,0.95
3.502,-1.13,-0.31,0.10,1.17
3.513,-1.22,-0.45,0.16,1.31
3.522,-1.19,-0.58,0.24,1.35
3.533,-1.06,-0.74,0.30,1.33
3.543,-0.91,-0.95,0.30,1.35
3.553,-0.74,-1.13,0.32,1.39
3.563,-0.54,-1.19,0.37,1.36
3.573,-0.37,-1.21,0.47,1.35
3.583,-0.36,-1.22,0.60,1.41
3.593,-0.50,-1.31,0.62,1.54
3.603,-0.64,-1.39,0.48,1.60
3.613,-0.62,-1.47,0.21,1.61
3.623,-0.32,-1.56,-0.11,1.60
3.633,0.09,-1.55,-0.24,1.57
3.643,0.53,-1.45,-0.16,1.55
3.653,0.85,-1.29,-0.10,1.54
3.663,0.96,-1.09,0.02,1.45
3.673,0.99,-0.95,0.22,1.38
3.683,1.02,-1.01,0.47,1.51
3.693,1.08,-1.10,0.73,1.70
3.703,1.14,-1.19,0.98,1.92
3.713,1.07,-1.35,1.19,2.10
3.723,0.84,-1.59,1.39,2.27
3.733,0.62,-1.85,1.69,2.58
3.743,0.66,-1.94,2.02,2.87
3.753,1.01,-1.81,1.99,2.87
3.763,1.35,-1.81,1.48,2.69
3.773,1.78,-1.60,1.13,2.65
3.783,2.23,-1.49,1.08,2.89
3.793,2.46,-1.42,0.51,2.89
3.803,2.30,-0.81,-0.26,2.45
3.813,2.04,-0.01,-0.82,2.20
3.823,1.39,0.78,-1.16,1.97
3.833,0.63,1.49,-1.61,2.28
3.843,0.44,2.03,-2.22,3.04
3.853,0.57,2.34,-2.42,3.41
3.863,0.70,2.49,-2.55,3.63
3.873,1.09,2.68,-2.13,3.59
3.883,1.68,2.69,-1.65,3.58
3.893,2.05,2.45,-1.11,3.38
3.903,1.94,1.74,-0.72,2.71
3.913,1.48,0.71,-0.35,1.68
3.923,0.95,-0.32,0.04,1.00
3.933,0.28,-1.16,0.38,1.25
3.943,-0.21,-1.55,0.53,1.65
3.953,-0.45,-1.24,0.47,1.40
3.963,-0.78,-0.55,0.33,1.01
3.973,-1.23,0.23,0.17,1.26
3.983,-1.72,0.74,-0.00,1.87
3.993,-2.28,0.91,-0.14,2.46
4.003,-2.85,0.84,-0.25,2.98
4.013,-3.27,0.70,-0.29,3.36
4.023,-3.25,0.50,-0.27,3.30
4.033,-2.79,0.32,-0.23,2.82
4.043,-2.07,0.19,-0.19,2.08
4.053,-1.37,0.05,-0.10,1.38
4.063,-0.84,-0.03,-0.04,0.84
4.073,-0.35,-0.05,0.09,0.36
4.083,0.14,0.07,0.22,0.27
4.093,0.37,0.26,0.25,0.52
4.103,0.49,0.53,0.22,0.75
4.113,0.23,0.78,0.14,0.82
4.123,-0.38,0.85,0.09,0.93
4.133,-1.00,0.77,0.10,1.27
4.143,-1.57,0.69,0.23,1.73
4.153,-1.86,0.67,0.34,2.00
4.163,-2.01,0.59,0.44,2.14
4.173,-2.07,0.36,0.53,2.17
4.183,-2.02,0.08,0.69,2.14
4.193,-1.95,-0.22,0.74,2.10
4.203,-1.78,-0.53,0.75,2.01
4.213,-1.63,-0.78,0.84,1.99
4.223,-1.45,-0.94,0.96,1.98
4.233,-1.30,-1.04,1.03,1.96
4.243,-1.18,-1.00,0.99,1.83
4.253,-1.09,-0.73,0.88,1.58
4.263,-0.97,-0.23,0.73,1.24
4.273,-0.77,0.32,0.67,1.07
4.283,-0.52,0.71,0.53,1.03
4.293,-0.28,0.90,0.32,0.99
4.303,-0.09,0.86,0.34,0.93
4.313,0.12,0.57,0.27,0.64
4.323,0.39,0.38,0.16,0.57
4.333,0.83,0.24,0.25,0.90
4.346,1.09,0.12,0.59,1.24
4.356,1.06,0.03,1.12,1.54
4.366,0.88,-0.29,1.78,2.01
4.376,0.53,-0.90,2.50,2.71
4.386,0.22,-1.53,3.08,3.44
4.396,-0.05,-2.08,3.48,4.05
4.406,-0.17,-2.54,3.62,4.42
4.416,0.23,-2.64,3.41,4.32
4.426,1.46,-2.20,2.89,3.92
4.436,3.05,-1.20,1.61,3.65
4.446,4.31,0.11,0.86,4.40
4.456,5.10,1.50,0.61,5.35
4.466,4.83,2.84,-0.94,5.68
4.476,3.94,4.11,-2.52,6.23
4.486,2.73,5.11,-3.34,6.69
4.496,1.50,5.29,-4.04,6.82
4.506,0.30,4.45,-4.43,6.29
4.516,-0.53,3.20,-3.72,4.94
4.526,-1.14,1.71,-3.11,3.73
4.536,-1.55,0.09,-2.41,2.86
4.546,-1.45,-1.19,-1.60,2.47
4.556,-1.15,-1.72,-1.73,2.70
4.566,-0.73,-1.17,-2.03,2.45
4.576,-0.12,0.22,-2.17,2.18
4.586,0.53,1.72,-2.23,2.86
4.596,1.11,2.83,-2.30,3.81
4.606,1.42,3.53,-2.44,4.51
4.616,1.14,3.74,-2.46,4.62
4.626,0.38,3.33,-2.28,4.06
4.636,-0.31,2.47,-1.97,3.17
4.646,-0.74,1.51,-1.55,2.29
4.656,-1.11,0.61,-1.19,1.73
4.666,-1.55,-0.18,-0.90,1.80
4.676,-1.94,-0.83,-0.70,2.23
4.686,-2.20,-1.36,-0.60,2.65
4.696,-2.20,-1.66,-0.57,2.81
4.706,-1.98,-1.62,-0.55,2.62
4.716,-1.72,-1.32,-0.55,2.24
4.726,-1.36,-0.99,-0.55,1.77
4.736,-1.01,-0.80,-0.46,1.37
4.746,-0.65,-0.83,-0.29,1.09
4.756,-0.27,-0.99,-0.13,1.03
4.766,-0.14,-1.15,0.03,1.16
4.776,-0.33,-1.32,0.14,1.37
4.786,-0.61,-1.47,0.23,1.61
4.796,-0.90,-1.54,0.26,1.80
4.806,-1.12,-1.46,0.31,1.87
4.816,-1.16,-1.21,0.32,1.71
4.826,-1.02,-0.92,0.31,1.41
4.836,-0.85,-0.73,0.23,1.14
4.846,-0.71,-0.59,0.19,0.94
4.856,-0.62,-0.45,0.21,0.79
4.866,-0.66,-0.37,0.25,0.80
4.876,-0.83,-0.35,0.25,0.93
4.886,-1.05,-0.40,0.23,1.14
4.896,-1.14,-0.52,0.26,1.28
4.906,-1.11,-0.69,0.27,1.33
4.916,-0.96,-0.81,0.23,1.28
4.926,-0.87,-0.86,0.22,1.24
4.936,-0.77,-1.09,0.06,1.34
4.946,-0.46,-1.17,-0.02,1.26
4.956,-0.12,-1.02,-0.01,1.03
4.966,0.12,-0.81,0.11,0.83
4.976,0.15,-0.75,0.10,0.77
4.986,0.23,-0.80,-0.05,0.83
4.996,0.29,-0.77,0.02,0.82
5.006,0.24,-1.01,-0.00,1.04
5.016,0.12,-1.49,0.02,1.49
5.026,0.25,-1.75,0.28,1.79
5.036,0.46,-1.81,0.63,1.97
5.046,0.66,-1.84,1.02,2.20
5.056,0.84,-1.74,1.37,2.37
5.066,0.95,-1.56,1.53,2.39
5.076,1.13,-1.32,1.70,2.43
5.086,1.36,-0.90,1.84,2.46
5.096,1.51,-0.59,1.79,2.42
5.106,1.74,-0.51,1.71,2.49
5.116,2.28,-0.53,1.65,2.86
5.126,2.45,-1.01,1.31,2.95
5.136,2.12,-1.15,0.84,2.55
5.146,1.92,-0.65,0.35,2.05
5.156,1.61,-0.09,-0.57,1.71
5.166,0.81,0.37,-1.29,1.56
5.176,0.42,0.88,-1.88,2.12
5.186,0.55,1.47,-2.20,2.71
5.196,0.53,1.93,-2.30,3.05
5.206,0.20,2.41,-2.12,3.22
5.216,0.23,2.79,-1.38,3.12
5.226,0.74,2.71,-0.84,2.93
5.236,1.48,2.28,-0.36,2.74
5.246,1.84,1.61,0.00,2.44
5.256,1.78,0.88,0.35,2.02
5.266,1.49,0.17,0.61,1.61
5.276,0.98,-0.41,0.62,1.22
5.286,0.46,-0.47,0.41,0.77
5.296,0.18,-0.12,0.10,0.24
5.306,-0.22,0.41,-0.27,0.54
5.316,-0.73,0.98,-0.56,1.35
5.326,-1.19,1.32,-0.72,1.92
5.336,-1.84,1.52,-0.75,2.50
5.346,-2.40,1.40,-0.60,2.84
5.356,-2.69,1.10,-0.51,2.95
5.366,-2.60,0.73,-0.28,2.72
5.376,-2.24,0.31,-0.08,2.26
5.386,-1.81,-0.04,-0.06,1.81
5.396,-1.31,-0.18,-0.11,1.32
5.406,-0.88,-0.28,-0.08,0.92
5.417,-0.62,-0.28,0.02,0.68
5.426,-0.39,-0.18,0.12,0.44
5.436,-0.39,-0.02,0.20,0.44
5.446,-0.69,0.18,0.28,0.76
5.456,-1.15,0.30,0.36,1.24
5.466,-1.59,0.44,0.41,1.70
5.476,-1.95,0.48,0.36,2.04
5.486,-2.11,0.40,0.27,2.17
5.496,-2.00,0.20,0.12,2.01
5.506,-1.79,-0.01,0.03,1.79
5.517,-1.53,-0.11,0.03,1.54
5.526,-1.33,-0.08,0.06,1.33
5.536,-1.22,0.03,0.12,1.22
5.546,-1.15,0.11,0.30,1.19
5.557,-1.12,0.09,0.49,1.22
5.567,-1.20,-0.02,0.62,1.35
5.577,-1.39,-0.17,0.82,1.62
5.587,-1.57,-0.32,1.01,1.90
5.596,-1.46,-0.27,1.16,1.88
5.606,-1.01,0.07,1.18,1.56
5.617,-0.50,0.48,1.28,1.45
5.626,0.00,0.75,1.26,1.47
5.637,0.45,0.98,0.93,1.43
5.646,0.77,1.15,0.85,1.63
5.656,0.82,0.92,0.57,1.36
5.667,0.68,0.63,0.62,1.12
5.677,0.52,0.49,0.94,1.18
5.687,0.34,0.36,1.63,1.71
5.697,0.18,-0.10,2.36,2.37
5.707,0.19,-0.80,2.94,3.05
5.717,0.28,-1.49,3.33,3.66
5.727,0.32,-2.06,3.58,4.14
5.737,0.38,-2.37,3.71,4.42
5.747,0.85,-2.21,3.53,4.25
5.757,1.95,-1.60,2.50,3.55
5.767,3.08,-0.87,1.27,3.44
5.777,3.90,-0.13,0.92,4.01
5.787,4.13,1.00,0.10,4.26
5.797,3.56,2.73,-1.14,4.63
5.807,2.05,4.04,-1.87,4.90
5.817,0.52,4.33,-2.31,4.94
5.827,-0.27,4.02,-3.00,5.02
5.837,-0.38,3.64,-2.96,4.71
5.847,0.79,3.38,-2.67,4.38
5.857,1.60,2.54,-2.45,3.87
5.867,1.23,1.04,-1.81,2.43
5.877,0.51,-0.43,-1.95,2.06
5.887,-0.07,-1.06,-1.99,2.26
5.897,-0.44,-1.06,-1.87,2.19
5.907,-0.63,-0.31,-1.78,1.91
5.917,-0.69,0.88,-1.65,1.99
5.927,-0.68,1.87,-1.66,2.59
5.937,-0.51,2.37,-1.85,3.05
5.947,-0.24,2.42,-2.04,3.17
5.957,-0.11,2.18,-2.10,3.03
5.967,-0.26,1.70,-2.07,2.69
5.977,-0.55,1.06,-2.02,2.34
5.987,-0.93,0.45,-1.91,2.17
5.997,-1.27,-0.09,-1.80,2.20
6.007,-1.55,-0.57,-1.64,2.32
6.017,-1.80,-0.98,-1.46,2.51
6.027,-2.01,-1.31,-1.34,2.75
6.037,-2.11,-1.38,-1.26,2.82
6.047,-2.11,-1.27,-1.24,2.75
6.057,-1.85,-1.10,-1.22,2.48
6.067,-1.55,-0.96,-1.21,2.18
6.077,-1.11,-0.77,-1.18,1.80
6.087,-0.60,-0.52,-1.10,1.36
6.097,-0.16,-0.39,-0.95,1.04
6.107,0.19,-0.44,-0.74,0.88
6.117,0.35,-0.66,-0.45,0.87
6.127,0.18,-1.04,-0.16,1.06
6.137,-0.04,-1.38,0.08,1.38
6.147,-0.22,-1.67,0.24,1.70
6.157,-0.35,-1.85,0.38,1.92
6.167,-0.43,-1.90,0.48,2.00
6.177,-0.47,-1.82,0.49,1.94
6.187,-0.48,-1.60,0.40,1.71
6.197,-0.45,-1.28,0.28,1.38
6.207,-0.45,-0.99,0.13,1.09
6.217,-0.52,-0.75,-0.01,0.92
6.227,-0.56,-0.62,-0.08,0.84
6.237,-0.61,-0.56,-0.06,0.83
6.247,-0.57,-0.57,-0.01,0.81
6.257,-0.52,-0.55,-0.03,0.76
6.267,-0.44,-0.54,0.03,0.70
6.277,-0.29,-0.54,0.19,0.64
6.287,-0.18,-0.63,0.44,0.79
6.297,-0.21,-0.87,0.62,1.09
6.307,-0.25,-1.22,0.57,1.37
6.317,-0.17,-1.59,0.41,1.65
6.327,0.19,-1.81,0.29,1.85
6.337,0.52,-1.98,0.27,2.06
6.347,0.58,-2.06,0.38,2.18
6.357,0.46,-2.05,0.58,2.18
6.367,0.31,-2.00,0.94,2.23
6.377,0.25,-1.93,1.38,2.38
6.387,0.32,-1.91,1.75,2.61
6.397,0.56,-1.91,2.09,2.88
6.407,0.96,-1.79,2.27,3.05
6.417,1.34,-1.60,2.23,3.06
6.427,1.56,-1.59,1.98,2.98
6.437,1.83,-1.58,1.58,2.89
6.447,2.70,-1.24,1.04,3.15
6.457,3.39,-0.70,0.52,3.50
6.467,2.88,-0.14,0.04,2.88
6.477,2.16,0.15,-0.31,2.18
6.487,1.85,0.29,-0.66,1.99
6.497,1.30,0.36,-1.18,1.79
6.507,0.91,0.50,-1.91,2.17
6.517,0.82,0.92,-2.56,2.84
6.527,0.47,1.34,-2.72,3.07
6.537,0.17,1.64,-2.81,3.26
6.547,0.20,1.91,-2.51,3.16
6.557,0.54,2.07,-1.85,2.82
6.567,0.81,2.00,-1.15,2.45
6.577,0.82,1.83,-0.56,2.08
6.587,0.68,1.88,-0.01,2.00
6.597,0.39,1.28,0.54,1.44
6.607,0.10,0.33,0.68,0.76
6.617,-0.08,-0.34,0.43,0.55
6.627,-0.34,-0.55,0.11,0.66
6.637,-0.53,-0.47,-0.11,0.72
6.647,-0.74,-0.22,-0.30,0.82
6.657,-0.84,-0.01,-0.44,0.95
6.667,-1.08,0.05,-0.42,1.16
6.677,-1.49,-0.02,-0.37,1.54
6.687,-1.93,-0.16,-0.32,1.97
6.697,-2.14,-0.17,-0.23,2.16
6.707,-2.01,-0.02,-0.14,2.01
6.717,-1.66,0.22,-0.14,1.68
6.727,-1.25,0.45,-0.19,1.34
6.737,-0.90,0.61,-0.18,1.10
6.747,-0.74,0.68,-0.13,1.01
6.757,-0.67,0.69,-0.07,0.96
6.767,-0.81,0.71,-0.06,1.08
6.777,-0.87,0.79,-0.09,1.18
6.787,-1.03,0.97,-0.14,1.42
6.797,-1.45,1.05,-0.15,1.79
6.807,-1.78,1.00,-0.13,2.04
6.818,-1.90,0.82,-0.00,2.08
6.828,-1.89,0.50,0.06,1.95
6.837,-1.70,0.16,0.13,1.71
6.847,-1.54,-0.09,0.25,1.56
6.858,-1.51,-0.24,0.35,1.56
6.867,-1.55,-0.31,0.45,1.64
6.877,-1.52,-0.41,0.59,1.68
6.887,-1.42,-0.53,0.69,1.67
6.897,-1.39,-0.62,0.78,1.71
6.907,-1.38,-0.70,0.82,1.76
6.918,-1.33,-0.67,0.81,1.69
6.927,-0.98,-0.32,0.85,1.34
6.937,-0.39,0.24,0.99,1.09
6.947,0.15,0.66,1.01,1.21
6.957,0.37,0.73,1.03,1.32
6.967,0.42,0.69,0.72,1.08
6.978,0.38,0.69,0.68,1.05
6.988,0.36,0.42,0.74,0.93
6.998,0.39,0.13,1.04,1.12
7.008,0.55,0.02,1.64,1.73
7.018,0.58,-0.02,2.32,2.39
7.028,0.41,-0.22,2.94,2.98
7.038,0.21,-0.57,3.53,3.58
7.048,0.03,-0.96,3.96,4.07
7.057,0.18,-1.33,3.94,4.16
7.068,1.08,-1.39,3.56,3.97
7.078,2.79,-1.06,2.54,3.92
7.088,4.55,-0.45,1.39,4.78
7.098,5.79,0.12,1.63,6.01
7.108,5.99,0.75,0.63,6.07
7.118,4.67,1.60,-1.52,5.16
7.128,2.18,2.24,-2.58,4.05
7.138,0.21,2.68,-2.88,3.94
7.148,-1.27,2.47,-3.87,4.76
7.158,-1.62,1.92,-3.37,4.20
7.168,-0.89,1.13,-3.06,3.38
7.178,-0.16,0.08,-2.89,2.90
7.188,0.43,-0.97,-2.44,2.66
7.198,0.82,-1.40,-2.55,3.02
7.208,1.15,-0.88,-2.50,2.89
7.218,1.33,0.27,-2.48,2.83
7.228,1.07,1.57,-2.32,3.00
7.238,0.56,2.65,-2.33,3.57
7.248,0.07,3.42,-2.58,4.29
7.258,-0.39,3.67,-2.80,4.63
7.268,-0.78,3.35,-2.69,4.36
7.278,-1.00,2.63,-2.43,3.72
7.288,-1.01,1.83,-2.04,2.93
7.298,-1.23,1.05,-1.64,2.30
7.308,-1.58,0.35,-1.34,2.10
7.318,-1.69,-0.33,-1.13,2.07
7.328,-1.75,-0.90,-1.02,2.22
7.338,-1.75,-1.32,-0.93,2.38
7.348,-1.74,-1.51,-0.80,2.44
7.358,-1.71,-1.35,-0.64,2.28
7.368,-1.64,-1.00,-0.61,2.01
7.378,-1.36,-0.60,-0.54,1.59
7.388,-1.03,-0.41,-0.47,1.20
7.398,-0.76,-0.39,-0.34,0.92
7.408,-0.57,-0.59,-0.22,0.85
7.418,-0.52,-0.92,-0.11,1.06
7.428,-0.61,-1.19,-0.00,1.34
7.438,-0.82,-1.43,0.03,1.64
7.448,-0.95,-1.50,0.11,1.78
7.458,-0.89,-1.35,0.16,1.62
7.468,-0.74,-1.06,0.11,1.30
7.478,-0.67,-0.69,0.11,0.97
7.488,-0.61,-0.35,0.11,0.71
7.498,-0.65,-0.16,0.11,0.68
7.508,-0.76,-0.11,0.12,0.77
7.518,-0.83,-0.16,0.15,0.86
7.528,-0.81,-0.32,0.12,0.88
7.538,-0.79,-0.47,0.14,0.93
7.548,-0.75,-0.58,0.19,0.97
7.558,-0.67,-0.63,0.26,0.96
7.568,-0.54,-0.66,0.28,0.90
7.578,-0.37,-0.78,0.28,0.91
7.588,-0.16,-0.94,0.27,0.99
7.598,0.00,-1.09,0.23,1.12
7.608,0.06,-1.23,0.18,1.24
7.618,0.09,-1.30,0.21,1.32
7.628,0.12,-1.34,0.27,1.37
7.638,0.21,-1.31,0.30,1.36
7.648,0.28,-1.34,0.30,1.40
7.658,0.31,-1.36,0.43,1.46
7.668,0.33,-1.39,0.60,1.55
7.678,0.45,-1.43,0.79,1.70
7.688,0.62,-1.51,1.05,1.94
7.698,0.79,-1.62,1.39,2.27
7.708,0.83,-1.79,1.60,2.54
7.718,0.98,-1.70,1.74,2.62
7.728,1.27,-1.20,1.78,2.49
7.738,1.36,-0.91,1.45,2.19
7.748,1.59,-0.81,1.02,2.06
7.758,2.15,-0.64,0.96,2.44
7.768,2.80,-0.45,0.87,2.97
7.778,2.96,-0.07,0.39,2.99
7.788,2.67,0.36,-0.08,2.70
7.798,2.03,0.57,-0.62,2.20
7.808,1.24,0.57,-1.33,1.91
7.818,0.61,0.82,-1.77,2.05
7.828,0.14,1.18,-2.15,2.46
7.838,-0.48,1.58,-2.86,3.30
7.848,-0.85,2.05,-2.58,3.40
7.858,-0.52,2.06,-1.98,2.90
7.868,0.38,1.64,-1.47,2.24
7.878,1.42,1.15,-1.15,2.16
7.888,2.00,0.81,-0.60,2.24
7.898,1.88,0.65,0.10,1.99
7.908,1.17,0.54,0.60,1.42
7.918,0.53,0.47,0.79,1.06
7.928,0.14,0.41,0.64,0.77
7.938,-0.25,0.42,0.46,0.67
7.948,-0.37,0.34,0.37,0.63
7.958,-0.54,0.20,0.26,0.63
7.969,-0.82,0.14,0.20,0.86
7.976,-1.14,0.07,0.16,1.15
7.986,-1.50,0.07,0.05,1.50
7.996,-1.84,-0.09,-0.08,1.85
8.006,-1.96,-0.26,-0.14,1.98
8.016,-1.87,-0.37,-0.17,1.92
8.026,-1.67,-0.37,-0.13,1.71
8.036,-1.39,-0.27,-0.11,1.42
8.046,-1.05,-0.09,-0.12,1.06
8.056,-0.74,0.06,-0.10,0.75
8.066,-0.64,0.16,-0.00,0.66
8.076,-0.69,0.27,0.05,0.74
8.086,-0.91,0.37,0.08,0.98
8.096,-1.22,0.46,0.15,1.31
8.106,-1.56,0.46,0.18,1.64
8.116,-1.92,0.30,0.19,1.95
8.126,-2.16,0.09,0.31,2.18
8.136,-2.19,-0.15,0.47,2.24
8.146,-2.04,-0.35,0.52,2.14
8.156,-1.86,-0.45,0.64,2.01
8.166,-1.73,-0.56,0.79,1.98
8.176,-1.51,-0.70,0.91,1.90
8.186,-1.33,-0.86,1.08,1.92
8.196,-1.26,-1.09,1.19,2.04
8.206,-1.28,-1.23,1.12,2.10
8.216,-1.32,-1.20,1.00,2.04
8.226,-1.29,-0.87,0.93,1.81
8.236,-1.06,-0.29,0.96,1.46
8.246,-0.72,0.22,0.98,1.23
8.256,-0.51,0.60,0.83,1.15
8.266,-0.22,0.94,0.52,1.10
8.276,0.07,1.30,0.48,1.39
8.286,0.23,1.46,0.34,1.51
8.296,0.36,1.52,0.54,1.66
8.306,0.61,1.51,1.01,1.91
8.316,0.82,1.34,1.51,2.18
8.326,0.73,0.99,2.01,2.36
8.336,0.49,0.49,2.48,2.58
8.349,0.40,-0.10,2.91,2.93
8.358,0.62,-0.69,3.16,3.29
8.368,1.45,-1.15,3.22,3.71
8.379,3.06,-0.94,2.75,4.22
8.389,4.66,-0.26,2.16,5.14
8.398,5.60,0.11,2.08,5.97
8.409,5.92,0.57,1.16,6.06
8.419,5.39,1.78,-0.32,5.68
8.428,3.50,2.74,-1.33,4.64
8.438,1.31,3.10,-2.01,3.92
8.449,-0.22,3.02,-2.52,3.94
8.459,-1.56,2.48,-2.98,4.18
8.469,-1.83,2.32,-2.85,4.11
8.479,-1.49,2.05,-2.76,3.75
8.489,-1.16,1.00,-2.17,2.66
8.499,-0.77,-0.40,-2.21,2.37
8.509,-0.49,-1.16,-2.38,2.69
8.519,-0.01,-1.34,-2.37,2.72
8.529,0.43,-0.98,-2.55,2.76
8.539,0.53,-0.08,-2.50,2.56
8.549,0.29,0.92,-2.36,2.55
8.559,0.07,1.66,-2.29,2.83
8.569,-0.10,2.11,-2.21,3.06
8.579,-0.40,2.15,-1.98,2.95
8.589,-0.74,1.91,-1.57,2.58
8.599,-0.97,1.57,-1.15,2.17
8.609,-1.15,1.13,-0.87,1.83
8.619,-1.30,0.66,-0.70,1.62
8.629,-1.46,0.15,-0.65,1.61
8.639,-1.48,-0.33,-0.70,1.67
8.649,-1.45,-0.66,-0.83,1.80
8.659,-1.42,-0.86,-0.87,1.88
8.669,-1.39,-0.90,-0.90,1.89
8.679,-1.12,-0.80,-0.83,1.61
8.689,-0.89,-0.67,-0.68,1.31
8.699,-0.78,-0.56,-0.59,1.13
8.709,-0.77,-0.52,-0.57,1.09
8.719,-0.75,-0.61,-0.56,1.12
8.729,-0.74,-0.78,-0.50,1.19
8.739,-0.74,-0.97,-0.42,1.28
8.749,-0.72,-1.20,-0.38,1.45
8.759,-0.76,-1.40,-0.32,1.62
8.769,-0.75,-1.48,-0.23,1.68
8.779,-0.69,-1.42,-0.16,1.59
8.789,-0.67,-1.24,-0.13,1.42
8.799,-0.77,-0.96,-0.09,1.24
8.809,-0.88,-0.68,-0.07,1.11
8.819,-0.92,-0.47,-0.05,1.03
8.829,-0.85,-0.35,-0.00,0.92
8.839,-0.74,-0.29,0.10,0.80
8.849,-0.59,-0.32,0.16,0.69
8.859,-0.44,-0.34,0.26,0.61
8.869,-0.36,-0.36,0.33,0.61
8.879,-0.24,-0.40,0.37,0.60
8.889,-0.09,-0.41,0.43,0.60
8.899,0.00,-0.51,0.41,0.65
8.909,0.05,-0.74,0.33,0.81
8.919,0.02,-1.05,0.15,1.07
8.929,0.09,-1.30,0.06,1.30
8.939,0.31,-1.34,0.07,1.38
8.949,0.57,-1.35,0.06,1.46
8.959,0.66,-1.38,0.27,1.55
8.969,0.54,-1.48,0.43,1.63
8.979,0.40,-1.78,0.44,1.88
8.989,0.35,-2.07,0.57,2.18
8.999,0.37,-2.16,0.87,2.36
9.009,0.47,-2.13,1.23,2.50
9.019,0.54,-2.00,1.48,2.55
9.029,0.51,-1.67,1.68,2.42
9.039,0.52,-1.08,1.96,2.30
9.049,0.38,-0.67,1.95,2.10
9.059,0.41,-0.79,1.35,1.62
9.069,1.37,-0.91,0.78,1.82
9.079,2.67,-0.80,0.44,2.82
9.089,3.15,-0.33,-0.02,3.17
9.099,3.11,0.32,-0.54,3.17
9.109,2.88,0.93,-1.03,3.20
9.119,2.21,1.31,-1.37,2.91
9.129,1.67,1.53,-1.90,2.96
9.139,1.33,1.81,-2.14,3.10
9.149,1.20,2.00,-2.11,3.14
9.159,1.30,2.19,-2.23,3.39
9.169,1.39,2.35,-2.05,3.42
9.179,1.20,2.26,-1.59,3.01
9.189,0.80,1.76,-1.17,2.26
9.199,0.43,1.16,-0.65,1.39
9.209,0.16,0.61,-0.12,0.64
9.219,-0.10,0.03,0.21,0.24
9.229,-0.41,-0.49,0.41,0.76
9.239,-0.66,-0.79,0.37,1.09
9.249,-0.93,-0.67,0.13,1.15
9.259,-1.08,-0.28,-0.15,1.13
9.269,-1.17,0.19,-0.36,1.24
9.279,-1.52,0.52,-0.49,1.68
9.289,-1.95,0.61,-0.57,2.12
9.299,-2.22,0.56,-0.60,2.36
9.309,-2.39,0.46,-0.57,2.50
9.319,-2.36,0.31,-0.42,2.42
9.329,-2.09,0.16,-0.28,2.11
9.339,-1.66,0.13,-0.19,1.67
9.349,-1.21,0.17,-0.16,1.23
9.359,-0.80,0.23,-0.15,0.85
9.369,-0.48,0.27,-0.11,0.56
9.379,-0.33,0.25,-0.02,0.42
9.389,-0.24,0.21,0.06,0.33
9.399,-0.34,0.21,0.11,0.41
9.409,-0.51,0.22,0.15,0.58
9.419,-0.72,0.25,0.11,0.77
9.429,-0.91,0.28,0.07,0.96
9.439,-1.00,0.25,0.05,1.04
9.449,-0.98,0.13,0.06,0.99
9.459,-0.87,0.00,0.12,0.88
9.469,-0.75,-0.11,0.20,0.79
9.479,-0.73,-0.25,0.28,0.82
9.489,-0.83,-0.34,0.36,0.97
9.499,-0.94,-0.33,0.45,1.09
9.509,-1.12,-0.23,0.53,1.26
9.519,-1.31,-0.10,0.69,1.49
9.529,-1.44,-0.04,0.92,1.71
9.539,-1.38,0.03,1.09,1.75
9.549,-1.21,0.06,1.20,1.71
9.559,-1.08,0.02,1.23,1.64
9.569,-0.82,0.03,1.19,1.45
9.579,-0.45,0.30,1.05,1.18
9.589,-0.16,0.75,0.84,1.13
9.599,-0.11,1.00,0.78,1.27
9.609,-0.22,0.86,0.57,1.06
9.619,-0.31,0.62,0.40,0.80
9.629,-0.13,0.47,0.26,0.55
9.639,0.29,0.40,0.34,0.60
9.649,0.87,0.34,0.77,1.21
9.660,1.27,0.24,1.34,1.87
9.669,1.21,-0.02,1.88,2.24
9.679,0.86,-0.58,2.41,2.63
9.690,0.42,-1.34,2.89,3.21
9.700,0.10,-2.00,3.14,3.72
9.709,0.25,-2.46,3.07,3.94
9.719,1.16,-2.36,2.36,3.53
9.729,2.38,-1.34,1.53,3.13
9.739,3.18,-0.29,1.41,3.49
9.749,3.72,0.69,0.73,3.86
9.759,3.89,2.04,-0.70,4.45
9.770,3.50,3.12,-1.71,4.99
9.780,2.56,3.48,-2.26,4.88
9.790,1.70,3.44,-2.55,4.61
9.799,0.80,3.28,-2.84,4.41
9.809,0.45,3.57,-2.41,4.33
9.820,0.09,3.31,-2.01,3.87
9.830,-0.76,2.07,-1.49,2.66
9.840,-1.41,0.70,-1.35,2.08
9.850,-1.69,-0.10,-1.89,2.54
9.860,-1.51,-0.32,-2.22,2.70
9.870,-0.90,-0.18,-2.59,2.75
9.880,-0.16,0.51,-2.81,2.86
9.890,0.26,1.49,-2.80,3.19
9.900,0.34,2.21,-2.87,3.64
9.910,0.14,2.52,-2.96,3.89
9.920,-0.31,2.59,-2.94,3.93
9.930,-0.77,2.49,-2.80,3.83
9.940,-0.95,2.26,-2.45,3.46
9.950,-1.03,1.87,-2.10,2.99
9.960,-1.14,1.39,-1.82,2.55
9.970,-1.22,0.79,-1.48,2.08
9.980,-1.26,0.05,-1.24,1.77
9.990,-1.30,-0.57,-1.13,1.82
10.000,-1.34,-1.10,-1.04,2.02
10.010,-1.43,-1.50,-1.00,2.30
10.020,-1.42,-1.72,-1.00,2.45
10.030,-1.11,-1.71,-0.98,2.26
10.040,-0.65,-1.53,-0.91,1.90
10.050,-0.37,-1.36,-0.83,1.63
10.060,-0.18,-1.26,-0.69,1.45
10.070,-0.13,-1.30,-0.50,1.39
10.080,-0.18,-1.35,-0.29,1.40
10.090,-0.15,-1.41,-0.09,1.42
10.100,-0.20,-1.52,0.09,1.54
10.110,-0.26,-1.63,0.24,1.67
10.120,-0.32,-1.64,0.37,1.71
10.130,-0.41,-1.56,0.46,1.67
10.140,-0.50,-1.43,0.48,1.59
10.150,-0.59,-1.24,0.48,1.45
10.160,-0.68,-1.10,0.45,1.37
10.170,-0.73,-1.07,0.45,1.37
10.180,-0.80,-1.02,0.45,1.38
10.190,-0.89,-0.97,0.40,1.38
10.200,-1.01,-0.95,0.35,1.43
10.210,-0.95,-0.88,0.34,1.34
10.220,-0.84,-0.78,0.32,1.19
10.230,-0.71,-0.68,0.27,1.02
10.240,-0.60,-0.63,0.20,0.89
10.250,-0.49,-0.69,0.11,0.85
10.260,-0.29,-1.00,-0.01,1.04
10.270,0.08,-1.20,0.06,1.20
10.280,0.41,-1.31,0.27,1.40
10.290,0.64,-1.34,0.42,1.54
10.300,0.79,-1.31,0.55,1.63
10.310,0.77,-1.24,0.56,1.57
10.320,0.63,-1.14,0.58,1.43
10.330,0.49,-1.14,0.61,1.38
10.340,0.44,-1.24,0.59,1.45
10.350,0.46,-1.39,0.64,1.59
10.360,0.47,-1.46,0.74,1.70
10.370,0.45,-1.47,0.85,1.75
10.380,0.40,-1.49,1.00,1.84
10.390,0.47,-1.49,1.09,1.91
10.400,0.72,-1.29,1.20,1.91
10.410,0.92,-0.96,1.23,1.81
10.420,0.99,-0.92,1.09,1.74
10.430,1.54,-0.69,0.72,1.83
10.440,2.46,-0.33,0.21,2.49
10.450,2.79,-0.12,-0.36,2.81
10.460,2.75,0.05,-0.92,2.90
10.470,2.75,0.18,-1.36,3.07
10.480,2.37,0.05,-1.86,3.01
10.490,1.42,-0.01,-2.07,2.50
10.500,0.49,0.23,-2.22,2.29
10.510,-0.24,0.68,-2.31,2.42
10.520,-0.91,1.20,-2.10,2.58
10.530,-1.26,1.85,-1.34,2.60
10.540,-0.86,2.28,-0.67,2.53
10.550,-0.05,2.22,-0.31,2.24
10.560,0.57,1.72,0.08,1.82
10.570,0.94,1.01,0.54,1.48
10.580,1.01,0.11,0.95,1.39
10.590,0.82,-0.73,1.08,1.55
10.600,0.66,-1.17,0.84,1.58
10.610,0.65,-0.95,0.57,1.29
10.620,0.35,-0.43,0.28,0.62
10.630,0.02,0.03,0.03,0.05
10.640,-0.23,0.33,-0.19,0.44
10.650,-0.46,0.52,-0.32,0.77
10.660,-0.75,0.65,-0.42,1.08
10.670,-1.07,0.67,-0.50,1.36
10.680,-1.22,0.67,-0.49,1.48
10.690,-1.35,0.60,-0.45,1.55
10.700,-1.36,0.50,-0.47,1.52
10.710,-1.35,0.40,-0.45,1.47
10.720,-1.22,0.41,-0.39,1.35
10.730,-1.05,0.47,-0.23,1.17
10.740,-0.95,0.58,-0.11,1.12
10.750,-0.92,0.74,-0.11,1.19
10.760,-1.07,0.93,-0.17,1.43
10.770,-1.37,1.11,-0.27,1.78
10.780,-1.60,1.20,-0.26,2.01
10.790,-1.83,1.11,-0.20,2.15
10.800,-1.97,0.95,-0.16,2.19
10.810,-1.97,0.76,-0.09,2.11
10.820,-1.78,0.60,0.03,1.88
10.830,-1.57,0.41,0.08,1.63
10.840,-1.34,0.28,0.13,1.37
10.850,-1.04,0.14,0.19,1.06
10.860,-0.82,-0.10,0.24,0.86
10.870,-0.67,-0.35,0.26,0.80
10.880,-0.69,-0.55,0.31,0.93
10.890,-0.85,-0.69,0.40,1.17
10.900,-1.08,-0.74,0.47,1.39
10.910,-1.25,-0.65,0.58,1.53
10.920,-1.31,-0.48,0.72,1.57
10.930,-1.07,-0.30,0.79,1.37
10.940,-0.61,-0.09,0.92,1.11
10.950,-0.16,0.00,0.94,0.96
10.960,0.15,-0.03,0.97,0.99
10.970,0.30,-0.17,0.95,1.01
10.980,0.34,-0.35,0.99,1.10
10.990,0.34,-0.46,1.14,1.28
11.000,0.34,-0.47,1.43,1.55
11.010,0.37,-0.42,1.63,1.73
11.020,0.44,-0.33,1.80,1.88
11.030,0.55,-0.20,1.97,2.05
11.040,0.58,-0.12,2.12,2.20
11.050,0.47,-0.19,2.42,2.47
11.060,0.16,-0.48,2.74,2.79
11.070,-0.05,-0.72,2.89,2.98
11.080,0.12,-0.72,2.76,2.85
11.090,0.94,-0.43,2.38,2.59
11.100,2.35,0.27,1.78,2.96
11.110,3.56,0.79,1.17,3.83
11.120,4.26,1.06,1.01,4.50
11.130,4.74,1.71,0.51,5.06
11.140,4.46,2.59,-0.34,5.17
11.150,3.00,3.08,-1.50,4.55
11.160,1.22,3.35,-2.27,4.23
11.170,-0.24,3.24,-2.69,4.22
11.180,-1.31,2.65,-2.78,4.06
11.190,-1.57,2.12,-2.74,3.81
11.201,-1.56,1.66,-2.35,3.27
11.211,-1.69,0.54,-2.10,2.75
11.221,-1.68,-0.79,-2.01,2.73
11.230,-1.41,-1.77,-2.06,3.06
11.241,-0.83,-2.21,-2.14,3.19
11.251,-0.09,-1.93,-2.47,3.14
11.261,0.59,-0.83,-2.67,2.86
11.270,1.11,0.59,-2.57,2.86
11.281,1.43,1.82,-2.38,3.32
11.291,1.38,2.68,-2.38,3.84
11.301,0.89,3.20,-2.35,4.06
11.311,0.06,3.17,-2.16,3.84
11.321,-0.58,2.65,-1.83,3.27
11.331,-0.96,1.79,-1.42,2.48
11.341,-1.25,0.95,-1.09,1.91
11.351,-1.47,0.16,-0.78,1.67
11.361,-1.59,-0.52,-0.71,1.82
11.371,-1.58,-1.04,-0.70,2.02
11.381,-1.47,-1.38,-0.72,2.14
11.391,-1.34,-1.47,-0.65,2.09
11.401,-1.26,-1.35,-0.51,1.91
11.411,-1.06,-1.09,-0.38,1.57
11.421,-0.79,-0.90,-0.30,1.24
11.431,-0.67,-0.88,-0.15,1.12
11.441,-0.52,-1.05,0.01,1.17
11.451,-0.44,-1.31,0.10,1.38
11.461,-0.57,-1.58,0.17,1.69
11.471,-0.79,-1.75,0.18,1.93
11.481,-1.00,-1.70,0.20,1.98
11.491,-1.19,-1.47,0.20,1.90
11.501,-1.27,-1.08,0.17,1.68
11.511,-1.15,-0.69,0.14,1.35
11.521,-0.90,-0.39,0.15,0.99
11.531,-0.61,-0.25,0.24,0.70
11.541,-0.48,-0.28,0.32,0.64
11.551,-0.39,-0.31,0.43,0.66
11.561,-0.49,-0.35,0.53,0.81
11.571,-0.69,-0.47,0.66,1.06
11.581,-0.77,-0.55,0.71,1.18
11.591,-0.82,-0.61,0.74,1.26
11.601,-0.92,-0.72,0.70,1.36
11.611,-0.95,-0.84,0.63,1.42
11.621,-0.91,-0.99,0.57,1.46
11.631,-0.75,-1.09,0.56,1.44
11.641,-0.53,-1.18,0.55,1.40
11.651,-0.26,-1.27,0.57,1.41
11.661,-0.02,-1.33,0.54,1.43
11.671,0.19,-1.39,0.45,1.48
11.681,0.37,-1.40,0.26,1.47
11.691,0.47,-1.32,0.19,1.42
11.701,0.55,-1.15,0.16,1.28
11.711,0.65,-0.98,0.19,1.19
11.721,0.74,-0.95,0.46,1.29
11.731,0.78,-1.07,0.79,1.55
11.741,0.80,-1.41,1.09,1.95
11.751,0.87,-1.68,1.34,2.32
11.761,1.01,-1.65,1.62,2.52
11.771,1.21,-1.33,1.83,2.57
11.781,1.30,-1.18,1.73,2.46
11.791,1.43,-1.32,1.55,2.49
11.801,1.97,-1.57,1.37,2.87
11.811,2.62,-1.72,0.87,3.26
11.821,2.75,-1.34,0.36,3.08
11.831,2.83,-0.86,-0.21,2.96
11.841,2.74,-0.30,-1.31,3.05
11.851,2.15,0.39,-1.93,2.92
11.861,1.52,0.98,-2.36,2.97
11.871,1.31,1.74,-2.63,3.41
11.881,1.21,2.60,-2.55,3.84
11.891,1.02,3.37,-2.67,4.42
11.901,0.61,4.01,-2.26,4.64
11.911,0.08,4.36,-1.64,4.66
11.921,-0.29,4.22,-1.17,4.39
11.931,-0.26,3.43,-0.71,3.51
11.941,-0.06,2.09,-0.24,2.10
11.951,0.13,0.63,0.26,0.69
11.961,0.28,-0.57,0.59,0.87
11.972,0.25,-1.30,0.46,1.40
11.979,0.18,-1.17,0.10,1.19
11.989,0.08,-0.53,-0.07,0.54
11.999,0.01,0.11,-0.17,0.20
12.009,-0.25,0.56,-0.26,0.67
12.019,-0.52,0.84,-0.25,1.02
12.029,-0.92,0.97,-0.27,1.36
12.038,-1.38,0.97,-0.28,1.71
12.049,-1.79,0.84,-0.21,1.99
12.059,-2.02,0.53,-0.10,2.09
12.069,-2.10,0.06,0.00,2.10
12.079,-1.93,-0.50,0.08,1.99
12.089,-1.66,-0.95,0.09,1.91
12.099,-1.34,-1.20,0.07,1.80
12.109,-1.05,-1.27,0.14,1.66
12.119,-0.84,-1.10,0.17,1.39
12.129,-0.84,-0.69,0.13,1.09
12.139,-1.12,-0.24,0.08,1.15
12.149,-1.51,0.12,0.06,1.52
12.159,-1.88,0.28,0.09,1.90
12.169,-2.07,0.20,0.20,2.09
12.179,-2.06,-0.02,0.26,2.08
12.189,-1.95,-0.24,0.27,1.98
12.199,-1.81,-0.34,0.36,1.88
12.209,-1.70,-0.37,0.43,1.79
12.219,-1.71,-0.35,0.39,1.79
12.229,-1.78,-0.31,0.41,1.85
12.239,-1.80,-0.36,0.61,1.94
12.249,-1.64,-0.51,0.87,1.93
12.259,-1.38,-0.61,1.00,1.81
12.269,-1.03,-0.58,1.12,1.63
12.279,-0.71,-0.50,1.25,1.52
12.289,-0.18,-0.36,1.40,1.45
12.299,0.39,0.09,1.37,1.43
12.309,0.75,0.46,1.56,1.79
12.319,0.76,0.36,1.66,1.86
12.329,0.62,0.33,1.48,1.64
12.343,0.54,0.61,1.50,1.70
12.353,0.39,0.65,1.57,1.74
12.363,0.40,0.58,1.69,1.83
12.372,0.35,0.45,2.00,2.08
12.383,0.20,0.22,2.29,2.31
12.393,0.04,-0.03,2.59,2.59
12.403,-0.12,-0.41,2.86,2.90
12.413,-0.09,-0.91,2.96,3.10
12.423,0.42,-1.35,2.67,3.02
12.433,1.76,-1.45,1.78,2.90
12.443,3.46,-1.05,0.79,3.70
12.453,4.67,-0.36,0.81,4.76
12.463,5.24,0.73,0.72,5.34
12.473,5.00,2.20,-0.47,5.48
12.483,3.48,3.28,-1.68,5.07
12.493,1.71,3.74,-2.48,4.80
12.503,0.91,3.87,-2.81,4.87
12.513,0.27,3.42,-3.39,4.83
12.523,0.03,3.01,-3.21,4.40
12.533,-0.02,2.60,-2.86,3.87
12.543,-0.61,1.48,-2.65,3.09
12.553,-1.21,-0.07,-2.04,2.37
12.563,-1.44,-1.22,-2.03,2.78
12.573,-1.60,-1.71,-2.29,3.27
12.583,-1.39,-1.56,-2.52,3.28
12.593,-0.79,-0.80,-2.72,2.94
12.603,-0.06,0.34,-2.69,2.71
12.613,0.44,1.21,-2.59,2.90
12.623,0.64,1.78,-2.55,3.17
12.633,0.47,2.05,-2.42,3.21
12.643,-0.02,1.97,-2.14,2.91
12.653,-0.43,1.57,-1.82,2.44
12.663,-0.81,1.02,-1.43,1.93
12.673,-1.14,0.44,-1.07,1.62
12.683,-1.28,-0.04,-0.87,1.55
12.693,-1.27,-0.47,-0.83,1.58
12.703,-1.16,-0.79,-0.85,1.64
12.713,-1.12,-0.90,-0.88,1.68
12.723,-1.23,-0.85,-0.95,1.78
12.733,-1.39,-0.67,-0.91,1.80
12.743,-1.44,-0.45,-0.84,1.73
12.753,-1.26,-0.32,-0.71,1.48
12.763,-0.87,-0.29,-0.55,1.07
12.773,-0.53,-0.37,-0.45,0.79
12.783,-0.38,-0.51,-0.34,0.72
12.793,-0.33,-0.71,-0.22,0.81
12.803,-0.39,-0.94,-0.10,1.02
12.813,-0.53,-1.16,0.01,1.27
12.823,-0.66,-1.33,0.15,1.49
12.833,-0.69,-1.42,0.27,1.60
12.843,-0.69,-1.45,0.30,1.63
12.853,-0.68,-1.44,0.36,1.63
12.863,-0.70,-1.44,0.44,1.66
12.873,-0.75,-1.47,0.50,1.72
12.883,-0.79,-1.55,0.55,1.83
12.893,-0.85,-1.58,0.61,1.90
12.903,-0.86,-1.53,0.71,1.89
12.913,-0.83,-1.47,0.77,1.86
12.923,-0.72,-1.36,0.79,1.73
12.933,-0.50,-1.22,0.81,1.55
12.943,-0.25,-1.00,0.78,1.30
12.953,0.00,-0.81,0.78,1.13
12.963,0.15,-0.69,0.84,1.09
12.973,0.11,-0.76,0.80,1.11
12.983,-0.06,-1.01,0.69,1.23
12.993,-0.18,-1.32,0.65,1.48
13.003,-0.19,-1.54,0.48,1.63
13.013,-0.19,-1.65,0.23,1.68
13.023,-0.12,-1.64,0.17,1.66
13.033,0.03,-1.58,0.27,1.61
13.043,0.27,-1.57,0.36,1.64
13.053,0.58,-1.68,0.52,1.85
13.063,1.00,-1.76,0.83,2.19
13.073,1.35,-1.68,1.09,2.42
13.083,1.58,-1.47,1.28,2.51
13.093,1.67,-1.07,1.35,2.40
13.103,1.64,-0.76,1.17,2.16
13.113,1.79,-0.80,0.79,2.11
13.123,2.44,-0.83,0.34,2.60
13.133,2.95,-0.58,0.18,3.01
13.143,2.98,-0.13,0.10,2.98
13.153,2.83,0.38,-0.70,2.94
13.163,2.39,0.85,-1.44,2.92
13.173,1.19,0.91,-1.56,2.16
13.183,0.10,1.00,-1.80,2.06
13.193,-0.34,1.54,-1.76,2.36
13.203,-0.58,1.97,-2.07,2.92
13.213,-0.92,2.35,-1.68,3.03
13.223,-0.84,2.50,-1.01,2.82
13.233,-0.09,2.36,-0.68,2.46
13.243,0.88,1.88,-0.53,2.14
13.253,1.55,1.21,-0.40,2.00
13.263,1.79,0.55,0.01,1.88
13.273,1.73,-0.04,0.30,1.75
13.283,1.48,-0.40,0.18,1.54
13.293,1.17,-0.30,-0.13,1.21
13.303,0.78,0.12,-0.29,0.84
13.313,0.29,0.52,-0.44,0.74
13.323,-0.23,0.84,-0.53,1.02
13.333,-0.85,0.99,-0.51,1.40
13.343,-1.41,0.96,-0.42,1.76
13.353,-1.85,0.81,-0.22,2.03
13.363,-2.02,0.54,-0.06,2.09
13.373,-2.07,0.22,0.04,2.08
13.383,-2.02,-0.08,0.13,2.02
13.393,-1.83,-0.33,0.19,1.87
13.403,-1.62,-0.47,0.21,1.70
13.413,-1.38,-0.52,0.23,1.50
13.423,-1.09,-0.51,0.26,1.23
13.433,-0.85,-0.44,0.26,0.99
13.443,-0.67,-0.35,0.23,0.79
13.453,-0.62,-0.20,0.17,0.67
13.463,-0.77,-0.08,0.07,0.78
13.473,-1.06,-0.03,0.04,1.07
13.483,-1.36,-0.03,0.06,1.36
13.493,-1.57,-0.04,0.03,1.57
13.503,-1.67,-0.04,-0.05,1.67
13.513,-1.63,0.05,-0.11,1.63
13.524,-1.47,0.11,-0.05,1.47
13.533,-1.35,0.10,0.06,1.35
13.543,-1.25,0.01,0.13,1.25
13.553,-1.25,-0.09,0.19,1.27
13.563,-1.50,-0.24,0.28,1.55
13.573,-1.75,-0.42,0.25,1.82
13.583,-1.89,-0.49,0.49,2.01
13.593,-1.97,-0.56,0.47,2.10
13.604,-1.85,-0.46,0.57,1.99
13.613,-1.52,-0.16,0.68,1.67
13.623,-1.11,0.16,0.74,1.34
13.633,-0.63,0.37,0.75,1.04
13.643,-0.16,0.45,0.64,0.80
13.654,0.16,0.58,0.56,0.83
13.664,0.36,0.71,0.62,1.01
13.673,0.46,0.84,0.67,1.17
13.684,0.48,0.91,0.92,1.38
13.694,0.47,0.79,1.30,1.60
13.703,0.43,0.49,1.70,1.83
13.714,0.32,0.09,2.11,2.13
13.723,0.13,-0.37,2.48,2.51
13.733,-0.16,-0.93,2.88,3.03
13.744,-0.40,-1.50,3.17,3.53
13.754,-0.36,-1.91,3.11,3.66
13.764,0.43,-1.84,2.73,3.32
13.774,2.22,-1.08,1.87,3.09
13.784,4.02,-0.03,0.96,4.13
13.794,5.45,0.88,0.80,5.57
13.804,6.61,2.25,0.18,6.99
13.814,6.38,3.92,-1.42,7.63
13.824,4.16,4.80,-3.23,7.13
13.834,1.59,5.07,-3.95,6.62
13.844,-0.21,4.65,-3.57,5.87
13.854,-1.04,3.51,-3.65,5.17
13.864,-0.73,2.56,-3.11,4.09
13.874,-0.76,0.75,-2.60,2.81
13.884,-1.04,-1.72,-1.94,2.80
13.894,-0.59,-3.25,-1.81,3.77
13.904,-0.03,-3.29,-2.15,3.93
13.914,0.08,-2.28,-2.36,3.29
13.924,0.07,-0.62,-2.56,2.63
13.934,0.08,1.13,-2.69,2.92
13.944,0.27,2.56,-2.71,3.74
13.954,0.59,3.57,-2.68,4.51
13.964,0.69,3.92,-2.59,4.74
13.974,0.19,3.42,-2.20,4.07
13.984,-0.36,2.36,-1.66,2.91
13.994,-0.76,1.23,-1.21,1.89
14.004,-1.15,0.35,-0.91,1.51
14.014,-1.56,-0.23,-0.67,1.71
14.024,-1.87,-0.73,-0.54,2.08
14.034,-2.03,-1.18,-0.53,2.41
14.044,-1.91,-1.49,-0.55,2.49
14.054,-1.51,-1.48,-0.53,2.18
14.064,-1.17,-1.11,-0.58,1.71
14.074,-1.03,-0.64,-0.62,1.36
14.084,-0.81,-0.32,-0.53,1.02
14.094,-0.60,-0.28,-0.42,0.78
14.104,-0.43,-0.49,-0.20,0.68
14.114,-0.41,-0.82,0.03,0.91
14.124,-0.53,-1.17,0.17,1.30
14.134,-0.73,-1.44,0.20,1.63
14.144,-0.95,-1.66,0.26,1.93
14.154,-1.03,-1.75,0.35,2.05
14.164,-1.01,-1.77,0.37,2.07
14.174,-0.87,-1.70,0.40,1.95
14.184,-0.71,-1.48,0.47,1.71
14.194,-0.62,-1.19,0.54,1.45
14.204,-0.61,-0.97,0.59,1.29
14.214,-0.68,-0.91,0.68,1.33
14.224,-0.84,-0.98,0.76,1.49
14.234,-1.02,-1.03,0.83,1.67
14.244,-1.11,-1.09,0.89,1.79
14.254,-1.13,-1.11,0.82,1.79
14.264,-1.07,-1.04,0.70,1.65
14.274,-0.99,-0.98,0.60,1.51
14.284,-0.80,-0.83,0.57,1.29
14.294,-0.74,-0.79,0.54,1.20
14.304,-0.73,-0.80,0.44,1.16
14.314,-0.66,-0.87,0.28,1.13
14.324,-0.51,-0.98,-0.01,1.11
14.334,-0.18,-1.07,-0.23,1.11
14.344,0.14,-1.14,-0.19,1.17
14.354,0.41,-1.39,-0.15,1.45
14.364,0.50,-1.72,0.04,1.79
14.374,0.54,-1.88,0.47,2.01
14.384,0.54,-1.70,0.87,1.99
14.394,0.53,-1.52,1.16,1.99
14.404,0.62,-1.35,1.31,1.98
14.414,0.89,-1.06,1.43,1.99
14.424,1.26,-0.63,1.51,2.07
14.434,1.60,-0.23,1.44,2.17
14.444,1.84,-0.12,1.33,2.28
14.454,2.25,-0.18,1.11,2.52
14.464,2.83,-0.44,0.89,3.00
14.474,2.97,-0.84,0.63,3.14
14.484,3.07,-0.53,-0.04,3.12
14.494,2.83,0.14,-0.80,2.94
14.504,1.67,0.44,-1.42,2.23
14.514,0.16,0.76,-2.01,2.16
14.524,-0.70,1.29,-2.18,2.63
14.534,-0.77,1.69,-2.31,2.97
14.544,-0.67,2.15,-2.25,3.18
14.554,-0.44,2.66,-1.38,3.03
14.564,0.06,2.91,-0.64,2.98
14.574,0.85,2.62,-0.32,2.78
14.584,1.66,1.72,-0.08,2.40
14.594,2.10,0.66,0.06,2.20
14.604,2.20,-0.15,0.29,2.22
14.614,1.85,-0.73,0.41,2.04
14.624,1.26,-0.95,0.33,1.61
14.634,0.71,-0.83,0.09,1.10
14.644,0.29,-0.52,-0.12,0.61
14.654,0.05,-0.19,-0.27,0.33
14.664,-0.17,0.15,-0.42,0.48
14.674,-0.49,0.42,-0.51,0.83
14.684,-0.94,0.55,-0.45,1.18
14.694,-1.37,0.54,-0.30,1.50
14.704,-1.66,0.45,-0.22,1.73
14.714,-1.91,0.33,-0.17,1.95
14.724,-2.01,0.23,-0.17,2.03
14.734,-1.96,0.19,-0.22,1.98
14.744,-1.82,0.16,-0.27,1.84
14.754,-1.52,0.16,-0.34,1.57
14.764,-1.19,0.24,-0.39,1.27
14.774,-1.02,0.33,-0.40,1.14
14.784,-1.10,0.49,-0.39,1.27
14.794,-1.42,0.67,-0.33,1.60
14.804,-1.76,0.79,-0.21,1.95
14.814,-2.08,0.77,-0.09,2.22
14.824,-2.19,0.59,0.02,2.27
14.834,-2.01,0.26,0.12,2.03
14.844,-1.73,-0.09,0.26,1.75
14.854,-1.39,-0.38,0.33,1.47
14.864,-1.19,-0.54,0.33,1.35
14.874,-1.15,-0.63,0.32,1.35
14.884,-1.13,-0.68,0.36,1.37
14.894,-1.21,-0.75,0.47,1.50
14.904,-1.32,-0.84,0.55,1.65
14.914,-1.44,-0.91,0.67,1.83
14.924,-1.51,-0.82,0.84,1.91
14.934,-1.48,-0.57,1.08,1.91
14.944,-1.12,-0.21,1.10,1.59
14.954,-0.55,0.37,1.04,1.23
14.964,0.10,0.97,0.98,1.39
14.975,0.62,1.35,0.92,1.75
14.984,0.80,1.33,0.76,1.73
14.994,0.81,1.13,0.67,1.54
15.005,0.80,0.85,0.69,1.36
15.015,0.78,0.57,0.91,1.33
15.024,0.77,0.40,1.37,1.62
15.034,0.73,0.30,1.91,2.06
15.044,0.67,0.27,2.45,2.56
15.054,0.60,0.17,2.88,2.95
15.064,0.67,-0.03,3.03,3.10
15.075,0.92,-0.30,2.99,3.14
15.084,1.76,-0.34,2.48,3.07
15.095,3.16,0.02,1.76,3.62
15.104,4.26,0.31,1.70,4.59
15.115,4.68,0.28,1.48,4.92
15.125,4.80,0.63,0.42,4.86
15.135,4.41,1.47,-0.33,4.66
15.144,2.66,1.91,-1.24,3.50
15.154,1.05,2.45,-1.85,3.24
15.164,0.08,2.81,-1.95,3.42
15.175,-0.66,2.55,-2.59,3.69
15.185,-0.76,2.45,-2.51,3.59
15.195,-1.21,1.77,-2.36,3.19
15.205,-1.63,0.33,-2.27,2.81
15.215,-1.54,-1.02,-2.40,3.03
15.225,-0.92,-1.62,-2.49,3.11
15.235,-0.07,-1.49,-2.81,3.18
15.245,0.52,-0.74,-3.10,3.23
15.255,0.66,0.35,-3.15,3.24
15.265,0.47,1.24,-3.06,3.34
15.275,0.22,1.87,-2.94,3.49
15.285,-0.20,2.22,-2.75,3.54
15.295,-0.77,2.29,-2.40,3.40
15.305,-1.29,2.14,-1.96,3.18
15.315,-1.60,1.80,-1.59,2.89
15.325,-1.75,1.34,-1.34,2.58
15.335,-1.77,0.80,-1.17,2.27
15.345,-1.88,0.20,-1.08,2.18
15.355,-1.94,-0.33,-1.07,2.24
15.365,-1.81,-0.69,-1.07,2.21
15.375,-1.69,-0.91,-1.06,2.19
15.385,-1.51,-0.89,-1.02,2.03
15.395,-1.15,-0.73,-0.90,1.64
15.405,-0.73,-0.60,-0.80,1.23
15.415,-0.33,-0.52,-0.69,0.93
15.425,-0.14,-0.52,-0.55,0.76
15.435,-0.20,-0.62,-0.37,0.75
15.445,-0.36,-0.90,-0.17,0.98
15.455,-0.55,-1.25,0.00,1.36
15.465,-0.69,-1.51,0.22,1.68
15.475,-0.69,-1.72,0.31,1.87
15.485,-0.73,-1.73,0.43,1.92
15.495,-0.70,-1.60,0.52,1.82
15.505,-0.68,-1.44,0.56,1.69
15.515,-0.67,-1.35,0.54,1.60
15.525,-0.73,-1.24,0.55,1.54
15.535,-0.89,-1.10,0.55,1.52
15.545,-1.04,-0.98,0.43,1.49
15.555,-1.07,-0.84,0.30,1.39
15.565,-1.03,-0.69,0.25,1.26
15.575,-0.89,-0.55,0.26,1.08
15.585,-0.80,-0.45,0.28,0.96
15.595,-0.73,-0.39,0.34,0.89
15.605,-0.63,-0.36,0.41,0.83
15.615,-0.55,-0.40,0.48,0.83
15.625,-0.47,-0.57,0.44,0.86
15.635,-0.43,-0.84,0.33,1.00
15.645,-0.28,-1.12,0.18,1.17
15.655,-0.03,-1.36,0.14,1.36
15.665,0.35,-1.49,0.19,1.54
15.675,0.78,-1.61,0.07,1.80
15.685,1.04,-1.64,0.18,1.95
15.695,1.04,-1.56,0.61,1.96
15.705,0.91,-1.66,0.90,2.09
15.715,0.78,-1.92,1.21,2.40
15.725,0.76,-2.17,1.49,2.74
15.735,0.84,-2.24,1.72,2.95
15.745,1.00,-2.21,1.90,3.08
15.755,1.32,-1.92,1.77,2.93
15.765,1.60,-1.75,1.34,2.72
15.775,1.85,-1.79,1.11,2.80
15.785,2.43,-1.66,0.95,3.09
15.795,2.96,-1.20,0.69,3.27
15.805,2.72,-0.28,0.34,2.76
15.815,2.53,0.69,-0.31,2.64
15.825,2.47,1.47,-1.12,3.09
15.835,1.89,1.74,-1.93,3.21
15.845,0.97,1.74,-2.52,3.21
15.855,0.49,2.17,-2.67,3.47
15.865,0.18,2.80,-2.59,3.82
15.875,-0.38,3.27,-2.53,4.15
15.885,-0.83,3.44,-1.91,4.02
15.895,-0.83,3.06,-1.24,3.41
15.905,-0.46,2.32,-0.70,2.46
15.915,-0.04,1.46,-0.30,1.49
15.925,0.43,0.56,0.02,0.71
15.935,0.63,-0.19,0.46,0.80
15.945,0.64,-0.75,0.65,1.18
15.955,0.63,-0.89,0.65,1.27
15.965,0.62,-0.46,0.44,0.89
15.976,0.60,0.18,0.13,0.64
15.981,0.52,0.69,-0.13,0.87
15.991,0.30,0.91,-0.26,1.00
16.002,-0.06,0.81,-0.28,0.86
16.011,-0.57,0.76,-0.37,1.02
16.021,-1.02,0.71,-0.28,1.27
16.032,-1.35,0.58,-0.18,1.48
16.042,-1.47,0.38,-0.07,1.52
16.051,-1.57,0.12,0.02,1.57
16.061,-1.60,-0.07,0.05,1.60
16.071,-1.47,-0.21,0.03,1.48
16.081,-1.36,-0.30,-0.01,1.39
16.092,-1.21,-0.27,0.01,1.24
16.101,-1.19,-0.09,0.06,1.20
16.111,-1.19,0.25,-0.01,1.21
16.122,-1.21,0.63,-0.04,1.37
16.131,-1.29,0.92,-0.10,1.59
16.142,-1.28,0.99,-0.19,1.63
16.152,-1.23,0.95,-0.33,1.59
16.161,-1.26,1.00,-0.41,1.66
16.171,-1.42,1.04,-0.46,1.82
16.182,-1.51,0.95,-0.25,1.81
16.192,-1.61,0.67,0.05,1.75
16.201,-1.72,0.27,0.34,1.77
16.212,-1.83,-0.06,0.53,1.90
16.222,-2.02,-0.48,0.68,2.19
16.232,-2.19,-1.06,0.74,2.54
16.242,-2.34,-1.56,0.69,2.89
16.252,-2.38,-1.77,0.63,3.03
16.262,-2.18,-1.71,0.65,2.85
16.272,-1.66,-1.44,0.69,2.30
16.282,-0.81,-1.00,0.95,1.60
16.292,0.18,-0.52,1.15,1.27
16.302,1.15,0.32,1.05,1.59
16.312,1.69,1.19,1.27,2.43
16.321,1.83,1.46,1.60,2.83
16.332,1.46,1.14,1.43,2.34
16.345,0.78,0.57,1.24,1.57
16.355,0.22,-0.06,1.31,1.33
16.365,0.07,-0.39,1.49,1.54
16.375,-0.07,-0.43,1.77,1.82
16.385,-0.16,-0.46,2.22,2.27
16.395,-0.19,-0.67,2.70,2.79
16.405,-0.19,-0.91,3.19,3.32
16.415,-0.23,-1.18,3.51,3.71
16.425,-0.06,-1.30,3.45,3.68
16.435,0.95,-1.09,2.75,3.11
16.445,2.65,-0.37,1.62,3.13
16.456,4.12,0.22,1.52,4.40
16.465,5.02,0.54,1.70,5.33
16.476,4.99,1.37,0.15,5.18
16.486,3.78,2.40,-1.39,4.68
16.496,1.73,2.81,-2.39,4.08
16.506,0.61,3.04,-3.20,4.45
16.515,0.29,2.99,-3.73,4.79
16.526,0.42,2.89,-4.01,4.96
16.535,1.18,3.21,-3.62,4.98
16.546,1.10,2.50,-3.09,4.12
16.556,0.27,0.84,-2.32,2.48
16.566,-0.62,-0.47,-2.17,2.31
16.576,-1.37,-1.09,-2.02,2.67
16.586,-1.47,-1.28,-2.13,2.89
16.596,-1.19,-0.96,-2.40,2.84
16.606,-0.75,-0.03,-2.50,2.61
16.616,-0.46,1.00,-2.57,2.80
16.626,-0.28,1.67,-2.63,3.13
16.636,-0.13,1.96,-2.71,3.35
16.645,-0.13,2.02,-2.62,3.31
16.655,-0.39,1.88,-2.35,3.03
16.666,-0.70,1.58,-1.99,2.64
16.676,-0.94,1.27,-1.56,2.22
16.686,-1.15,0.88,-1.24,1.90
16.696,-1.28,0.44,-1.00,1.68
16.706,-1.32,-0.04,-0.87,1.58
16.716,-1.25,-0.50,-0.79,1.56
16.726,-1.18,-0.83,-0.74,1.63
16.736,-1.15,-1.03,-0.71,1.70
16.746,-1.09,-1.07,-0.67,1.67
16.756,-0.95,-0.99,-0.58,1.49
16.766,-0.72,-1.03,-0.52,1.36
16.776,-0.57,-1.13,-0.41,1.33
16.786,-0.56,-1.22,-0.31,1.38
16.796,-0.59,-1.29,-0.26,1.44
16.806,-0.68,-1.31,-0.24,1.50
16.816,-0.62,-1.27,-0.28,1.44
16.826,-0.52,-1.14,-0.31,1.29
16.836,-0.41,-0.98,-0.33,1.11
16.846,-0.39,-0.74,-0.33,0.90
16.856,-0.37,-0.44,-0.28,0.64
16.866,-0.36,-0.17,-0.21,0.45
16.876,-0.41,0.01,-0.12,0.42
16.886,-0.54,0.11,-0.01,0.55
16.896,-0.75,0.05,0.13,0.76
16.906,-0.95,-0.13,0.30,1.00
16.916,-1.04,-0.33,0.49,1.20
16.926,-1.10,-0.52,0.64,1.37
16.936,-1.10,-0.72,0.74,1.50
16.946,-1.03,-0.91,0.78,1.58
16.956,-0.97,-1.11,0.72,1.64
16.966,-0.91,-1.26,0.63,1.67
16.976,-0.84,-1.28,0.46,1.59
16.986,-0.74,-1.11,0.34,1.38
16.996,-0.65,-0.89,0.28,1.14
17.006,-0.47,-0.72,0.21,0.89
17.016,-0.16,-0.71,0.21,0.75
17.026,0.32,-0.82,0.25,0.91
17.036,0.80,-1.07,0.24,1.36
17.046,1.19,-1.38,0.23,1.83
17.056,1.51,-1.63,0.33,2.25
17.066,1.67,-1.82,0.56,2.53
17.076,1.69,-1.92,0.84,2.69
17.086,1.54,-1.97,1.15,2.75
17.096,1.31,-2.02,1.37,2.77
17.106,1.09,-2.08,1.63,2.86
17.116,0.90,-1.92,1.85,2.82
17.126,0.78,-1.60,1.96,2.64
17.136,0.65,-1.40,1.85,2.41
17.146,0.71,-1.50,1.54,2.27
17.156,1.30,-1.51,1.02,2.23
17.166,2.18,-1.13,0.50,2.50
17.176,2.86,-0.27,-0.05,2.87
17.186,3.16,0.87,-0.49,3.32
17.196,3.01,1.88,-0.88,3.66
17.206,2.69,2.33,-1.57,3.89
17.216,2.12,2.28,-2.18,3.80
17.226,1.55,2.18,-2.45,3.63
17.236,0.89,2.22,-2.39,3.38
17.246,0.32,2.29,-1.91,3.00
17.256,0.09,2.23,-1.36,2.61
17.266,0.04,2.14,-1.24,2.47
17.276,-0.15,2.10,-0.78,2.25
17.286,-0.37,1.87,-0.46,1.96
17.296,-0.59,1.38,-0.28,1.53
17.306,-0.85,0.68,-0.18,1.11
17.316,-1.01,-0.07,-0.08,1.02
17.326,-0.95,-0.70,0.01,1.17
17.336,-0.61,-1.05,-0.20,1.23
17.346,-0.38,-1.12,-0.41,1.25
17.356,-0.10,-1.13,-0.56,1.26
17.366,-0.14,-1.05,-0.63,1.24
17.376,-0.52,-0.78,-0.57,1.10
17.386,-0.95,-0.36,-0.47,1.11
17.396,-1.42,0.06,-0.39,1.47
17.406,-1.65,0.31,-0.31,1.71
17.416,-1.73,0.37,-0.20,1.78
17.426,-1.71,0.26,-0.06,1.73
17.436,-1.50,-0.04,0.01,1.50
17.446,-1.24,-0.43,0.08,1.32
17.456,-1.03,-0.81,0.11,1.32
17.466,-0.79,-1.07,0.14,1.34
17.476,-0.51,-1.11,0.20,1.24
17.486,-0.36,-0.96,0.26,1.06
17.496,-0.35,-0.68,0.26,0.81
17.506,-0.43,-0.31,0.31,0.61
17.516,-0.69,0.02,0.38,0.78
17.526,-0.99,0.23,0.41,1.10
17.536,-1.30,0.39,0.43,1.43
17.546,-1.54,0.44,0.43,1.66
17.556,-1.66,0.39,0.39,1.75
17.566,-1.73,0.32,0.37,1.79
17.576,-1.75,0.21,0.42,1.81
17.586,-1.72,0.13,0.51,1.80
17.596,-1.75,-0.00,0.73,1.90
17.606,-1.77,-0.18,0.83,1.96
17.616,-1.77,-0.34,0.93,2.03
17.626,-1.83,-0.46,1.08,2.18
17.636,-1.96,-0.50,1.06,2.28
17.646,-1.98,-0.41,1.16,2.34
17.656,-1.54,-0.11,1.17,1.94
17.666,-0.98,0.38,0.93,1.40
17.676,-0.53,0.72,0.91,1.28
17.686,-0.23,0.70,0.88,1.15
17.696,0.04,0.63,0.69,0.94
17.706,0.16,0.62,0.72,0.96
17.716,0.20,0.45,0.55,0.74
17.726,0.43,0.43,0.76,0.97
17.736,0.75,0.57,1.14,1.48
17.746,1.04,0.79,1.56,2.03
17.756,1.03,0.85,1.92,2.34
17.766,0.84,0.62,2.31,2.53
17.776,0.72,0.21,2.63,2.74
17.787,0.64,-0.35,2.97,3.06
17.797,0.60,-0.90,3.19,3.37
17.806,1.01,-1.19,2.82,3.22
17.816,2.19,-1.01,2.00,3.13
17.826,3.39,-0.47,1.37,3.69
17.836,3.94,0.16,1.15,4.11
17.846,3.92,1.23,0.91,4.21
17.856,2.95,2.31,0.41,3.77
17.866,1.20,2.57,-0.65,2.91
17.876,-0.00,2.44,-1.39,2.81
17.886,-0.32,2.19,-1.70,2.79
17.896,-0.55,1.79,-2.32,2.98
17.907,0.07,1.72,-2.50,3.04
17.916,0.84,1.53,-2.74,3.25
17.926,0.50,0.54,-2.74,2.83
17.936,-0.25,-0.63,-2.65,2.74
17.946,-0.70,-1.19,-2.96,3.26
17.957,-0.72,-1.22,-3.12,3.42
17.966,-0.40,-0.85,-3.16,3.29
17.977,0.04,0.03,-3.15,3.15
17.987,0.35,1.16,-3.01,3.25
17.997,0.48,2.16,-2.83,3.59
18.006,0.44,2.81,-2.73,3.94
18.017,0.31,3.06,-2.64,4.05
18.027,0.04,2.89,-2.44,3.78
18.037,-0.19,2.46,-2.06,3.22
18.047,-0.35,1.81,-1.68,2.49
18.057,-0.43,1.07,-1.21,1.67
18.067,-0.38,0.34,-0.81,0.96
18.077,-0.36,-0.41,-0.65,0.85
18.087,-0.47,-1.02,-0.56,1.26
18.097,-0.84,-1.47,-0.48,1.76
18.107,-1.33,-1.67,-0.54,2.20
18.117,-1.79,-1.57,-0.63,2.46
18.127,-1.99,-1.33,-0.69,2.49
18.137,-1.73,-1.01,-0.73,2.13
18.147,-1.38,-0.74,-0.72,1.72
18.157,-1.07,-0.61,-0.66,1.40
18.167,-0.78,-0.58,-0.54,1.12
18.177,-0.62,-0.64,-0.44,0.99
18.187,-0.59,-0.80,-0.36,1.06
18.197,-0.65,-1.00,-0.28,1.22
18.207,-0.60,-1.14,-0.20,1.30
18.217,-0.54,-1.20,-0.10,1.32
18.227,-0.44,-1.15,-0.01,1.23
18.237,-0.38,-1.02,0.10,1.10
18.247,-0.43,-0.90,0.22,1.02
18.257,-0.50,-0.82,0.29,1.00
18.267,-0.57,-0.83,0.37,1.07
18.277,-0.63,-0.92,0.46,1.21
18.287,-0.71,-1.04,0.49,1.35
18.297,-0.82,-1.07,0.56,1.46
18.307,-0.89,-1.07,0.61,1.52
18.317,-0.96,-1.04,0.63,1.56
18.327,-1.00,-1.06,0.65,1.60
18.337,-0.83,-1.09,0.72,1.55
18.347,-0.65,-1.25,0.66,1.55
18.357,-0.47,-1.39,0.54,1.56
18.367,-0.26,-1.49,0.46,1.58
18.377,-0.07,-1.56,0.37,1.61
18.387,0.08,-1.59,0.33,1.63
18.397,0.20,-1.48,0.38,1.54
18.407,0.21,-1.29,0.37,1.36
18.417,0.14,-1.11,0.51,1.23
18.427,0.12,-1.15,0.71,1.36
18.437,0.32,-1.38,0.98,1.72
18.447,0.72,-1.65,1.23,2.18
18.457,1.16,-1.88,1.46,2.65
18.467,1.51,-1.98,1.64,2.99
18.477,1.73,-1.87,1.77,3.11
18.487,1.86,-1.54,1.66,2.93
18.497,1.90,-1.17,1.37,2.62
18.507,2.07,-0.71,1.36,2.58
18.517,2.59,-0.52,1.46,3.01
18.527,2.90,-0.56,1.07,3.14
18.537,2.63,-0.24,0.28,2.66
18.547,2.55,0.30,-0.37,2.60
18.557,2.36,0.27,-1.27,2.70
18.567,1.70,0.22,-2.00,2.63
18.577,1.38,0.79,-2.19,2.70
18.587,1.55,1.37,-2.14,2.97
18.597,1.52,1.78,-2.37,3.34
18.607,1.09,2.35,-2.17,3.38
18.617,0.42,2.75,-1.57,3.19
18.627,-0.01,2.67,-1.05,2.87
18.637,-0.20,2.04,-0.70,2.17
18.647,-0.31,0.93,-0.47,1.09
18.657,-0.28,-0.11,-0.14,0.33
18.667,-0.24,-0.81,0.10,0.86
18.677,-0.17,-1.04,0.08,1.06
18.687,-0.13,-0.72,-0.22,0.76
18.697,-0.13,-0.15,-0.46,0.50
18.707,-0.28,0.23,-0.65,0.74
18.717,-0.59,0.40,-0.76,1.04
18.727,-0.96,0.47,-0.72,1.28
18.737,-1.31,0.41,-0.58,1.49
18.747,-1.60,0.29,-0.48,1.69
18.757,-1.78,0.11,-0.37,1.82
18.767,-1.82,-0.04,-0.31,1.85
18.777,-1.85,-0.10,-0.24,1.87
18.787,-1.81,-0.09,-0.22,1.82
18.797,-1.68,-0.04,-0.24,1.70
18.807,-1.52,0.04,-0.21,1.54
18.817,-1.18,0.12,-0.13,1.20
18.827,-0.73,0.16,-0.10,0.76
18.837,-0.45,0.25,-0.07,0.52
18.847,-0.37,0.37,-0.06,0.52
18.857,-0.50,0.48,-0.05,0.69
18.867,-0.80,0.54,0.06,0.96
18.877,-1.11,0.50,0.23,1.24
18.887,-1.33,0.38,0.40,1.44
18.897,-1.36,0.22,0.54,1.48
18.907,-1.26,0.05,0.72,1.45
18.917,-1.13,-0.14,0.86,1.43
18.927,-1.12,-0.31,0.91,1.48
18.937,-1.21,-0.48,0.97,1.63
18.947,-1.32,-0.63,1.07,1.81
18.957,-1.52,-0.85,1.08,2.05
18.967,-1.88,-1.13,0.98,2.40
18.977,-2.25,-1.34,0.78,2.73
18.987,-2.40,-1.47,0.59,2.88
18.997,-2.25,-1.59,0.50,2.80
19.007,-1.74,-1.70,0.64,2.51
19.017,-0.85,-1.42,0.79,1.84
19.027,0.38,-0.25,0.83,0.95
19.037,0.99,1.21,0.34,1.60
19.047,1.15,2.41,0.64,2.74
19.057,0.84,2.50,0.63,2.71
19.067,0.49,2.08,0.48,2.19
19.077,0.41,1.78,0.95,2.06
19.087,0.48,1.32,1.47,2.03
19.097,0.69,0.72,2.12,2.34
19.107,0.78,0.04,2.56,2.68
19.117,0.74,-0.60,2.79,2.94
19.127,0.92,-1.24,2.87,3.26
19.137,1.86,-1.64,2.54,3.55
19.147,3.73,-1.17,1.67,4.25
19.158,5.19,-0.49,1.33,5.38
19.167,5.88,0.05,1.63,6.10
19.177,5.78,0.83,0.58,5.87
19.188,4.57,1.68,-1.25,5.03
19.197,2.51,2.16,-2.17,3.96
19.208,0.63,2.27,-2.25,3.26
19.217,-1.04,1.92,-2.66,3.44
19.227,-1.86,1.81,-2.78,3.80
19.237,-1.65,2.03,-2.61,3.70
19.247,-1.64,1.21,-2.56,3.27
19.257,-1.29,-0.22,-2.18,2.54
19.268,-0.46,-1.07,-2.37,2.64
19.277,0.18,-1.03,-2.61,2.81
19.288,0.51,-0.74,-2.83,2.97
19.297,0.76,-0.06,-2.98,3.07
19.307,0.67,1.02,-2.98,3.22
19.318,0.26,2.07,-2.78,3.48
19.327,-0.20,2.72,-2.57,3.75
19.338,-0.54,2.84,-2.36,3.73
19.348,-0.81,2.52,-1.95,3.29
19.358,-1.07,2.02,-1.42,2.69
19.368,-1.27,1.52,-0.98,2.21
19.378,-1.58,1.00,-0.68,1.99
19.388,-1.86,0.36,-0.59,1.98
19.398,-1.94,-0.30,-0.70,2.08
19.408,-1.87,-0.94,-0.84,2.26
19.418,-1.65,-1.38,-0.90,2.33
19.428,-1.33,-1.49,-0.95,2.21
19.438,-0.99,-1.24,-0.85,1.80
19.448,-0.70,-0.93,-0.74,1.38
19.458,-0.46,-0.62,-0.57,0.96
19.468,-0.44,-0.47,-0.42,0.77
19.478,-0.65,-0.43,-0.36,0.85
19.488,-0.98,-0.56,-0.31,1.18
19.498,-1.25,-0.75,-0.29,1.49
19.508,-1.34,-0.87,-0.19,1.61
19.518,-1.31,-0.99,-0.10,1.64
19.528,-1.11,-1.02,-0.10,1.51
19.538,-0.76,-0.92,-0.07,1.19
19.548,-0.47,-0.78,-0.11,0.92
19.558,-0.27,-0.62,-0.14,0.68
19.568,-0.22,-0.48,-0.14,0.55
19.578,-0.25,-0.40,-0.07,0.47
19.588,-0.30,-0.46,0.02,0.55
19.598,-0.36,-0.63,0.17,0.75
19.608,-0.44,-0.75,0.37,0.95
19.618,-0.61,-0.77,0.54,1.12
19.628,-0.84,-0.84,0.63,1.35
19.638,-0.90,-0.89,0.67,1.43
19.648,-0.80,-0.89,0.67,1.37
19.658,-0.66,-0.95,0.62,1.31
19.668,-0.60,-1.08,0.53,1.34
19.678,-0.55,-1.23,0.41,1.41
19.688,-0.42,-1.32,0.35,1.43
19.698,-0.20,-1.36,0.31,1.41
19.708,0.16,-1.36,0.25,1.39
19.718,0.58,-1.43,0.13,1.55
19.728,0.82,-1.55,0.38,1.80
19.738,0.81,-1.77,0.58,2.04
19.748,0.67,-1.97,0.81,2.23
19.758,0.61,-2.01,1.07,2.35
19.768,0.68,-1.87,1.37,2.41
19.778,0.73,-1.74,1.65,2.50
19.788,0.80,-1.65,1.78,2.56
19.798,1.08,-1.32,1.79,2.47
19.808,1.29,-0.99,1.57,2.26
19.818,1.46,-0.98,1.27,2.17
19.828,2.15,-0.85,1.20,2.61
19.838,3.15,-0.76,1.11,3.42
19.848,3.47,-0.36,0.68,3.55
19.858,3.28,0.49,-0.01,3.32
19.868,3.26,1.32,-0.98,3.65
19.878,2.69,1.45,-1.83,3.57
19.888,1.75,1.23,-2.44,3.24
19.898,1.07,1.53,-2.54,3.16
19.908,0.60,2.05,-2.69,3.44
19.918,-0.15,2.62,-2.81,3.85
19.928,-0.66,3.09,-2.09,3.78
19.938,-0.65,3.14,-1.37,3.48
19.948,-0.09,2.83,-0.75,2.93
19.958,0.61,2.14,-0.24,2.24
19.968,1.10,1.28,0.15,1.69
19.974,1.17,0.38,0.71,1.41
19.984,0.88,-0.47,0.98,1.40
19.994,0.48,-0.91,0.88,1.35
20.004,0.18,-0.90,0.53,1.06
20.014,0.11,-0.67,0.18,0.70
20.024,-0.09,-0.46,-0.05,0.47
20.034,-0.53,-0.30,-0.15,0.62
20.044,-0.97,-0.30,-0.17,1.03
20.054,-1.49,-0.39,-0.21,1.56
20.064,-1.91,-0.48,-0.23,1.99
20.074,-2.12,-0.38,-0.19,2.16
20.084,-2.13,-0.19,-0.09,2.14
20.094,-2.05,-0.01,0.02,2.05
20.104,-1.93,0.12,0.02,1.94
20.114,-1.77,0.22,0.04,1.78
20.124,-1.51,0.23,-0.01,1.53
20.135,-1.10,0.20,-0.02,1.12
20.144,-0.77,0.23,0.02,0.81
20.155,-0.70,0.33,-0.02,0.77
20.164,-0.80,0.51,-0.07,0.95
20.174,-1.13,0.63,-0.03,1.29
20.184,-1.46,0.61,0.04,1.58
20.194,-1.65,0.51,0.14,1.73
20.204,-1.69,0.35,0.20,1.74
20.214,-1.63,0.19,0.32,1.68
20.224,-1.58,0.05,0.49,1.65
20.235,-1.55,-0.01,0.59,1.66
20.244,-1.42,0.01,0.56,1.52
20.254,-1.22,0.11,0.39,1.28
20.265,-0.97,0.16,0.33,1.04
20.274,-0.75,0.11,0.50,0.91
20.285,-0.71,-0.04,0.74,1.03
20.294,-0.92,-0.33,0.94,1.36
20.304,-1.35,-0.61,0.98,1.78
20.314,-1.76,-0.71,0.99,2.14
20.324,-1.78,-0.64,0.93,2.10
20.334,-1.69,-0.54,0.65,1.89
20.346,-1.33,-0.31,0.34,1.40
20.356,-0.83,0.17,0.25,0.88
20.366,-0.31,0.60,0.10,0.68
20.376,0.16,1.11,-0.14,1.13
20.386,0.44,1.54,-0.13,1.61
20.396,0.61,1.66,0.28,1.79
20.406,0.66,1.61,0.98,2.00
20.416,0.64,1.21,1.71,2.19
20.426,0.49,0.36,2.33,2.41
20.436,0.29,-0.66,2.85,2.94
20.446,0.21,-1.55,3.22,3.57
20.456,0.09,-2.28,3.63,4.29
20.466,-0.03,-2.83,3.90,4.82
20.476,0.15,-2.90,3.69,4.69
20.486,1.11,-2.23,2.86,3.79
20.496,2.58,-1.06,1.66,3.25
20.506,4.07,0.11,0.88,4.16
20.516,5.35,1.28,0.67,5.54
20.526,5.51,2.52,-0.15,6.06
20.536,4.42,3.67,-1.93,6.06
20.546,2.77,4.63,-2.54,5.96
20.556,0.96,4.86,-2.58,5.58
20.566,-1.06,3.93,-3.00,5.05
20.576,-1.99,2.88,-2.56,4.34
20.586,-1.49,1.90,-2.53,3.50
20.596,-0.80,0.38,-2.43,2.59
20.606,0.11,-1.32,-1.95,2.35
20.616,1.00,-2.16,-2.06,3.15
20.626,1.58,-1.68,-2.29,3.25
20.636,1.58,-0.53,-2.39,2.91
20.646,0.98,0.74,-2.23,2.54
20.656,0.41,1.89,-2.02,2.80
20.666,0.07,2.80,-2.09,3.49
20.676,-0.22,3.19,-2.21,3.89
20.686,-0.50,3.00,-2.16,3.73
20.696,-0.66,2.35,-1.95,3.13
20.706,-0.70,1.61,-1.68,2.43
20.716,-0.84,0.89,-1.42,1.88
20.726,-1.06,0.26,-1.19,1.62
20.736,-1.33,-0.28,-1.14,1.77
20.746,-1.55,-0.65,-1.12,2.02
20.756,-1.78,-0.87,-1.14,2.29
20.766,-1.97,-0.93,-1.10,2.44
20.776,-2.10,-0.76,-1.07,2.48
20.786,-2.05,-0.56,-1.09,2.39
20.796,-1.61,-0.33,-1.02,1.94
20.806,-1.19,-0.15,-0.91,1.50
20.816,-0.85,-0.06,-0.78,1.16
20.826,-0.54,-0.12,-0.65,0.85
20.836,-0.42,-0.29,-0.50,0.71
20.846,-0.48,-0.58,-0.35,0.82
20.856,-0.63,-0.96,-0.23,1.17
20.866,-0.74,-1.34,-0.12,1.53
20.876,-0.76,-1.55,-0.02,1.73
20.886,-0.77,-1.64,0.09,1.82
20.896,-0.72,-1.57,0.14,1.74
20.906,-0.65,-1.41,0.21,1.57
20.916,-0.59,-1.20,0.25,1.36
20.926,-0.53,-1.00,0.30,1.17
20.936,-0.60,-0.89,0.32,1.12
20.946,-0.73,-0.69,0.31,1.05
20.956,-0.85,-0.45,0.36,1.02
20.966,-0.94,-0.28,0.46,1.08
20.976,-0.97,-0.20,0.49,1.11
20.986,-0.94,-0.25,0.46,1.08
20.996,-0.94,-0.50,0.33,1.11
21.006,-0.90,-0.82,0.27,1.25
21.016,-0.72,-1.02,0.27,1.28
21.026,-0.48,-1.16,0.33,1.30
21.036,-0.15,-1.19,0.39,1.26
21.046,0.12,-1.23,0.43,1.31
21.056,0.35,-1.33,0.46,1.45
21.066,0.54,-1.44,0.43,1.60
21.076,0.65,-1.50,0.50,1.71
21.086,0.73,-1.44,0.59,1.72
21.096,0.81,-1.31,0.76,1.72
21.106,0.85,-1.17,0.89,1.69
21.116,0.84,-1.03,1.05,1.69
21.126,0.64,-0.97,1.17,1.65
21.136,0.48,-0.92,1.24,1.62
21.146,0.34,-0.90,1.37,1.67
21.156,0.21,-1.00,1.52,1.83
21.166,0.16,-1.14,1.66,2.02
21.176,0.42,-1.18,1.61,2.04
21.186,0.82,-1.25,1.38,2.03
21.196,1.30,-1.64,1.08,2.35
21.206,2.12,-1.80,0.97,2.95
21.216,3.09,-1.65,0.82,3.59
21.226,3.34,-0.96,0.38,3.49
21.236,2.86,0.04,-0.19,2.86
21.246,2.56,1.01,-1.05,2.95
21.256,2.06,1.46,-1.87,3.14
21.266,1.25,1.37,-2.33,2.98
21.276,0.79,1.46,-2.50,3.00
21.286,0.56,1.86,-2.32,3.03
21.296,0.63,2.35,-2.09,3.21
21.306,0.96,2.78,-1.70,3.40
21.316,1.35,3.08,-1.21,3.57
21.326,1.64,2.97,-0.73,3.47
21.336,1.62,2.18,-0.35,2.74
21.346,1.23,0.85,-0.09,1.50
21.356,0.59,-0.61,0.25,0.89
21.366,-0.07,-1.77,0.55,1.85
21.377,-0.73,-2.39,0.53,2.56
21.386,-0.92,-2.27,0.33,2.47
21.396,-0.85,-1.63,0.09,1.84
21.407,-0.85,-0.80,-0.20,1.19
21.417,-0.92,-0.13,-0.41,1.02
21.427,-0.95,0.33,-0.51,1.13
21.437,-1.15,0.64,-0.52,1.41
21.447,-1.44,0.83,-0.51,1.74
21.456,-1.66,0.81,-0.44,1.90
21.467,-1.83,0.55,-0.39,1.95
21.477,-1.95,0.19,-0.36,1.99
21.487,-1.94,-0.16,-0.34,1.97
21.497,-1.64,-0.41,-0.35,1.73
21.507,-1.16,-0.52,-0.36,1.32
21.516,-0.73,-0.56,-0.34,0.98
21.527,-0.43,-0.46,-0.29,0.70
21.537,-0.46,-0.19,-0.25,0.55
21.546,-0.78,0.15,-0.30,0.85
21.556,-1.19,0.42,-0.30,1.29
21.567,-1.57,0.59,-0.19,1.69
21.577,-1.78,0.55,-0.15,1.87
21.587,-1.85,0.34,-0.12,1.89
21.597,-1.79,0.17,-0.06,1.80
21.607,-1.66,0.07,-0.03,1.66
21.617,-1.54,0.08,-0.00,1.54
21.627,-1.41,0.12,0.05,1.42
21.637,-1.25,0.18,0.16,1.27
21.647,-1.09,0.16,0.26,1.13
21.656,-1.05,0.04,0.39,1.12
21.667,-1.12,-0.18,0.62,1.29
21.677,-1.26,-0.39,0.88,1.58
21.687,-1.27,-0.49,1.05,1.72
21.697,-1.20,-0.41,1.07,1.66
21.707,-1.01,-0.15,0.89,1.36
21.717,-0.84,0.18,0.81,1.18
21.727,-0.63,0.34,0.69,0.99
21.737,-0.28,0.45,0.67,0.86
21.747,-0.11,0.17,0.61,0.64
21.757,0.05,-0.19,0.34,0.39
21.767,0.39,-0.22,0.38,0.59
21.777,0.70,-0.19,0.73,1.02
21.787,0.88,-0.09,1.34,1.60
21.797,0.83,-0.09,1.94,2.11
21.807,0.64,-0.36,2.44,2.55
21.817,0.49,-0.77,2.85,3.00
21.827,0.39,-1.25,3.13,3.39
21.837,0.58,-1.50,3.09,3.48
21.847,1.32,-1.41,2.68,3.30
21.857,2.86,-0.77,1.77,3.45
21.867,4.46,0.08,0.91,4.55
21.877,5.80,0.62,0.96,5.91
21.887,6.86,1.52,0.58,7.05
21.897,6.48,2.81,-1.45,7.21
21.907,4.09,3.64,-3.38,6.44
21.917,1.41,4.04,-3.46,5.50
21.927,-0.34,3.84,-3.29,5.07
21.937,-1.34,3.09,-3.50,4.85
21.947,-1.59,2.36,-2.86,4.04
21.957,-1.91,0.78,-2.31,3.10
21.967,-1.94,-1.20,-1.96,3.01
21.977,-1.40,-2.64,-2.04,3.62
21.987,-0.72,-3.09,-2.30,3.92
21.997,-0.04,-2.59,-2.70,3.74
22.007,0.52,-1.34,-2.78,3.13
22.017,0.88,0.14,-2.67,2.81
22.027,1.23,1.43,-2.53,3.16
22.037,1.37,2.24,-2.54,3.65
22.047,1.10,2.60,-2.44,3.74
22.057,0.37,2.47,-2.18,3.31
22.067,-0.39,1.86,-1.66,2.52
22.077,-0.82,1.11,-1.16,1.80
22.087,-1.06,0.45,-0.71,1.35
22.097,-1.22,-0.07,-0.41,1.29
22.107,-1.30,-0.55,-0.35,1.46
22.117,-1.28,-0.96,-0.46,1.66
22.127,-1.20,-1.18,-0.54,1.77
22.137,-1.20,-1.26,-0.58,1.83
22.147,-1.31,-1.22,-0.58,1.88
22.157,-1.38,-1.04,-0.57,1.82
22.167,-1.16,-0.83,-0.50,1.51
22.177,-1.01,-0.75,-0.47,1.34
22.187,-0.98,-0.79,-0.43,1.33
22.197,-1.01,-0.85,-0.27,1.34
22.207,-1.13,-0.97,-0.14,1.50
22.217,-1.35,-1.12,-0.10,1.75
22.227,-1.55,-1.24,-0.15,1.99
22.237,-1.64,-1.28,-0.26,2.09
22.247,-1.51,-1.25,-0.29,1.98
22.257,-1.21,-1.10,-0.34,1.67
22.267,-0.84,-0.82,-0.40,1.24
22.277,-0.60,-0.50,-0.41,0.88
22.287,-0.51,-0.35,-0.39,0.73
22.297,-0.59,-0.33,-0.27,0.72
22.307,-0.71,-0.39,-0.20,0.83
22.317,-0.78,-0.33,-0.19,0.86
22.327,-0.75,-0.25,-0.29,0.84
22.337,-0.71,-0.17,-0.30,0.80
22.347,-0.63,-0.11,-0.21,0.67
22.357,-0.52,-0.06,-0.19,0.56
22.367,-0.32,-0.00,-0.10,0.33
22.377,-0.10,0.02,-0.03,0.10
22.387,-0.01,-0.03,0.06,0.07
22.397,0.01,-0.21,0.10,0.23
22.407,0.04,-0.49,0.01,0.49
22.417,0.27,-0.85,-0.15,0.91
22.427,0.58,-1.13,-0.27,1.29
22.437,0.75,-1.25,-0.17,1.46
22.447,0.68,-1.30,-0.08,1.47
22.457,0.46,-1.37,0.05,1.45
22.467,0.31,-1.46,0.42,1.55
22.477,0.20,-1.62,0.68,1.77
22.487,0.23,-1.67,0.66,1.81
22.497,0.50,-1.45,0.57,1.64
22.507,0.97,-1.24,0.20,1.59
22.517,1.41,-1.14,0.00,1.81
22.527,2.50,-1.00,0.78,2.81
22.537,3.57,-1.17,1.91,4.22
22.547,3.69,-1.67,1.60,4.36
22.557,3.58,-1.30,0.66,3.87
22.567,3.11,-0.00,-0.80,3.21
22.577,2.78,2.06,-0.28,3.47
22.587,1.67,2.09,-0.97,2.85
22.597,1.27,2.41,-1.49,3.10
22.607,1.11,2.89,-1.64,3.51
22.617,0.51,2.92,-1.68,3.40
22.627,-0.07,2.59,-1.48,2.98
22.637,-0.25,1.91,-1.06,2.20
22.647,0.07,1.06,-0.59,1.21
22.657,0.31,0.36,-0.12,0.49
22.667,0.46,0.05,0.07,0.47
22.677,0.37,-0.03,0.20,0.42
22.687,0.15,0.22,0.42,0.50
22.697,0.10,0.66,0.27,0.72
22.707,0.13,1.03,-0.10,1.05
22.717,0.02,1.33,-0.34,1.37
22.727,-0.24,1.45,-0.49,1.55
22.737,-0.69,1.33,-0.55,1.60
22.747,-1.13,1.12,-0.48,1.66
22.757,-1.35,0.85,-0.42,1.65
22.767,-1.32,0.57,-0.44,1.51
22.777,-1.17,0.37,-0.39,1.29
22.787,-0.96,0.24,-0.34,1.05
22.797,-0.90,0.09,-0.34,0.97
22.808,-0.98,0.06,-0.38,1.05
22.818,-0.96,0.16,-0.36,1.04
22.828,-0.92,0.24,-0.37,1.03
22.838,-0.82,0.30,-0.44,0.98
22.848,-0.71,0.34,-0.45,0.91
22.857,-0.70,0.44,-0.41,0.92
22.868,-0.77,0.63,-0.35,1.06
22.878,-0.86,0.80,-0.34,1.22
22.888,-0.94,0.91,-0.37,1.36
22.897,-1.02,0.86,-0.31,1.37
22.908,-1.00,0.67,-0.21,1.22
22.918,-0.79,0.38,-0.08,0.88
22.928,-0.57,0.14,0.03,0.59
22.938,-0.54,-0.12,0.13,0.57
22.948,-0.47,-0.34,0.18,0.61
22.957,-0.49,-0.36,0.22,0.65
22.968,-0.61,-0.34,0.36,0.79
22.978,-0.74,-0.40,0.43,0.95
22.988,-0.88,-0.35,0.62,1.13
22.998,-1.13,-0.36,0.57,1.32
23.008,-1.11,-0.46,0.61,1.35
23.018,-1.00,-0.64,0.63,1.35
23.028,-1.05,-0.79,0.53,1.41
23.038,-0.96,-0.78,0.53,1.34
23.049,-0.87,-0.71,0.47,1.22
23.057,-0.92,-0.65,0.42,1.21
23.068,-1.03,-0.57,0.41,1.24
23.078,-0.90,-0.41,0.38,1.06
23.088,-0.68,-0.20,0.37,0.80
23.098,-0.55,0.02,0.44,0.71
23.108,-0.59,0.13,0.47,0.76
23.118,-0.75,0.23,0.42,0.89
23.128,-0.79,0.28,0.43,0.94
23.138,-0.65,0.28,0.47,0.85
23.148,-0.67,0.31,0.47,0.87
23.158,-0.75,0.41,0.54,1.01
23.168,-0.73,0.44,0.64,1.07
23.178,-0.67,0.37,0.73,1.05
23.188,-0.70,0.36,0.77,1.10
23.198,-0.64,0.24,0.93,1.15
23.208,-0.51,-0.01,1.06,1.18
23.218,-0.50,-0.22,1.16,1.28
23.228,-0.53,-0.43,1.30,1.47
23.238,-0.56,-0.64,1.46,1.69
23.248,-0.61,-0.81,1.62,1.91
23.258,-0.58,-0.90,1.75,2.05
23.268,-0.48,-0.97,1.88,2.17
23.278,-0.33,-1.04,1.98,2.26
23.288,-0.29,-0.92,2.10,2.31
23.298,-0.27,-0.80,2.20,2.35
23.308,-0.17,-0.59,2.19,2.27
23.318,0.24,-0.22,1.88,1.91
23.328,0.99,0.35,1.35,1.71
23.338,1.90,1.03,0.79,2.31
23.348,2.78,1.34,0.91,3.22
23.358,3.47,1.34,0.49,3.75
23.368,3.95,1.86,-0.46,4.39
23.378,3.91,2.69,-1.13,4.88
23.388,3.67,3.06,-1.95,5.16
23.398,4.05,3.27,-1.81,5.51
23.408,3.59,2.78,-1.70,4.85
23.418,1.61,1.40,-1.43,2.57
23.428,0.02,0.62,-0.87,1.07
23.438,-0.70,0.17,-0.92,1.17
23.448,-1.29,-0.33,-0.93,1.63
23.458,-1.58,-0.52,-1.20,2.05
23.468,-1.45,-0.46,-1.76,2.33
23.478,-1.15,-0.39,-2.01,2.35
23.488,-0.63,-0.34,-2.31,2.42
23.498,0.24,-0.19,-2.41,2.43
23.508,0.96,-0.22,-2.35,2.55
23.518,1.32,-0.21,-2.40,2.75
23.528,1.12,0.23,-2.32,2.59
23.538,0.65,0.62,-2.26,2.44
23.548,0.38,0.78,-2.07,2.24
23.558,0.04,0.87,-1.76,1.96
23.568,-0.36,0.86,-1.47,1.74
23.578,-0.90,0.71,-1.30,1.73
23.588,-1.33,0.47,-1.20,1.86
23.598,-1.54,0.28,-1.16,1.95
23.608,-1.63,0.19,-1.16,2.01
23.618,-1.59,0.06,-1.18,1.98
23.628,-1.61,-0.00,-1.17,1.99
23.638,-1.50,0.02,-1.12,1.87
23.648,-1.19,-0.05,-1.01,1.56
23.658,-0.80,-0.14,-0.96,1.26
23.668,-0.63,-0.26,-0.88,1.12
23.678,-0.60,-0.20,-0.72,0.96
23.688,-0.43,-0.34,-0.67,0.86
23.698,-0.18,-0.43,-0.51,0.69
23.708,-0.03,-0.35,-0.50,0.61
23.718,-0.12,-0.44,-0.48,0.66
23.728,-0.14,-0.57,-0.38,0.70
23.738,-0.07,-0.63,-0.23,0.67
23.748,-0.08,-0.70,-0.12,0.72
23.758,-0.13,-0.65,0.14,0.67
23.768,-0.19,-0.48,0.29,0.60
23.778,-0.39,-0.47,0.35,0.71
23.788,-0.64,-0.47,0.36,0.87
23.798,-0.70,-0.47,0.35,0.91
23.808,-0.67,-0.57,0.28,0.92
23.818,-0.66,-0.55,0.27,0.90
23.828,-0.81,-0.46,0.22,0.95
23.838,-0.99,-0.42,0.03,1.08
23.848,-0.94,-0.49,-0.07,1.06
23.858,-0.77,-0.52,-0.05,0.93
23.868,-0.55,-0.48,-0.12,0.74
23.878,-0.30,-0.48,-0.09,0.57
23.888,-0.38,-0.50,-0.10,0.64
23.898,-0.56,-0.54,-0.10,0.78
23.908,-0.63,-0.56,-0.08,0.84
23.918,-0.55,-0.52,-0.04,0.76
23.928,-0.42,-0.51,0.05,0.67
23.938,-0.13,-0.58,0.23,0.64
23.948,0.08,-0.39,-0.00,0.40
23.958,0.14,-0.54,0.40,0.69
23.968,0.34,-0.61,0.47,0.84
23.978,0.62,-0.74,0.47,1.07
23.988,0.72,-1.03,0.38,1.32
23.998,0.34,-0.84,0.36,0.98
24.008,0.28,-0.75,0.33,0.87
24.018,0.40,-0.75,0.36,0.92
24.028,0.44,-0.78,0.54,1.04
24.038,0.54,-0.95,0.62,1.26
24.048,0.58,-0.98,0.73,1.35
24.058,0.53,-0.93,0.80,1.34
24.068,0.31,-0.91,0.91,1.33
24.078,0.05,-0.92,0.89,1.28
24.088,-0.15,-0.78,0.64,1.02
24.098,-0.23,-0.48,0.76,0.92
24.108,-0.49,-0.06,0.80,0.94
24.118,-0.82,-0.02,0.67,1.05
24.128,-0.35,-0.61,0.48,0.85
24.138,-0.12,-0.48,0.43,0.65
24.148,0.19,-0.39,-0.17,0.47
24.158,0.65,-0.61,-0.24,0.92
24.168,1.44,-0.79,-0.25,1.66
24.178,2.09,-0.92,-0.54,2.34
24.188,2.15,-0.53,-1.18,2.51
24.199,1.52,0.32,-1.65,2.26
24.209,0.77,0.86,-1.74,2.08
24.218,0.14,1.02,-1.32,1.67
24.228,-0.19,1.02,-1.26,1.63
24.238,0.03,1.23,-1.15,1.69
24.248,0.57,1.68,-0.63,1.88
24.259,1.11,2.02,-0.16,2.31
24.269,1.70,2.11,-0.05,2.71
24.278,2.18,1.92,-0.20,2.92
24.288,2.32,1.47,-0.13,2.75
24.298,1.98,0.88,0.27,2.19
24.308,1.49,0.36,0.29,1.56
24.319,1.16,0.19,0.19,1.19
24.329,0.81,0.05,-0.02,0.81
24.338,0.30,0.05,-0.24,0.39
24.348,-0.33,0.27,-0.32,0.54
24.358,-1.26,0.57,-0.47,1.46
24.368,-2.19,0.54,-0.42,2.29
24.379,-2.85,0.34,-0.27,2.89
24.389,-2.93,0.39,-0.19,2.96
24.399,-2.39,0.48,-0.24,2.45
24.409,-1.72,0.42,-0.32,1.80
24.419,-1.07,0.29,-0.24,1.13
24.429,-0.60,0.18,-0.22,0.66
24.439,-0.37,0.03,-0.20,0.42
24.449,-0.28,-0.05,-0.20,0.35
24.459,-0.43,0.01,-0.24,0.49
24.469,-0.66,0.02,-0.25,0.71
24.479,-0.50,-0.11,-0.19,0.55
24.489,-0.19,-0.10,-0.14,0.26
24.499,0.04,0.08,-0.09,0.13
24.509,0.26,0.35,-0.02,0.44
24.519,0.33,0.45,-0.03,0.56
24.529,0.24,0.47,-0.01,0.53
24.539,0.04,0.45,-0.04,0.45
24.549,-0.17,0.44,0.08,0.48
24.559,-0.55,0.50,0.18,0.77
24.569,-0.83,0.52,0.13,0.99
24.579,-0.82,0.54,0.01,0.98
24.589,-0.83,0.73,-0.01,1.11
24.599,-0.66,0.89,0.06,1.11
24.609,-0.39,0.66,0.05,0.76
24.619,-0.41,0.37,0.10,0.56
24.629,-0.50,0.30,0.21,0.62
24.639,-0.26,0.64,0.36,0.78
24.649,0.14,1.08,0.47,1.19
24.659,0.11,1.21,0.67,1.38
24.669,0.14,1.78,1.01,2.05
24.679,0.77,3.26,0.90,3.47
24.689,-2.43,-0.60,-1.02,2.70
24.699,-2.20,-0.67,0.79,2.43
24.709,-0.06,-0.06,1.09,1.09
24.719,-0.12,0.62,0.62,0.88
24.729,-0.99,0.81,0.81,1.51
24.739,-1.31,0.46,0.74,1.58
24.749,-1.29,0.12,0.76,1.51
24.759,-1.21,0.19,0.74,1.43
24.769,-1.19,0.43,0.59,1.40
24.779,-1.14,0.47,0.62,1.38
24.789,-0.79,0.17,0.48,0.94
24.799,0.23,-0.22,0.14,0.35
24.809,1.55,-0.72,-0.04,1.71
24.819,2.26,-1.07,-0.05,2.50
24.829,2.14,-0.90,-0.23,2.33
24.839,1.51,-0.43,-0.65,1.70
24.849,1.07,0.12,-0.86,1.38
24.859,0.86,0.78,-1.09,1.59
24.869,0.62,1.03,-1.21,1.71
24.879,0.67,0.44,-0.85,1.17
24.889,0.40,0.00,-0.55,0.68
24.899,-0.08,0.18,-0.57,0.61
24.909,-0.23,0.20,-0.74,0.80
24.919,-0.23,-0.07,-1.02,1.05
24.929,-0.12,-0.01,-1.31,1.32
24.939,0.14,0.19,-1.52,1.54
24.949,0.26,0.27,-1.64,1.68
24.959,0.23,0.31,-1.67,1.71
24.969,0.30,0.20,-1.63,1.67
24.979,0.34,0.04,-1.55,1.59
24.989,0.34,0.14,-1.55,1.59
24.999,0.39,0.21,-1.50,1.57
25.009,0.52,0.06,-1.43,1.52
25.019,0.55,-0.10,-1.32,1.43
25.029,0.43,-0.32,-1.15,1.26
25.039,0.28,-0.55,-0.98,1.16
25.049,0.12,-0.63,-0.90,1.10
25.059,0.14,-0.81,-0.83,1.17
25.069,0.21,-0.85,-0.76,1.16
25.079,0.10,-0.84,-0.70,1.10
25.089,0.00,-0.85,-0.70,1.10
25.099,-0.02,-0.74,-0.79,1.09
25.109,-0.05,-0.64,-0.87,1.08
25.119,-0.16,-0.60,-0.93,1.11
25.129,-0.27,-0.46,-0.93,1.07
25.139,-0.34,-0.41,-0.91,1.06
25.149,-0.41,-0.39,-0.88,1.05
25.159,-0.32,-0.39,-0.80,0.94
25.169,-0.16,-0.41,-0.74,0.86
25.179,-0.15,-0.50,-0.67,0.85
25.189,-0.18,-0.62,-0.64,0.91
25.199,-0.21,-0.66,-0.68,0.97
25.209,-0.30,-0.63,-0.66,0.97
25.219,-0.41,-0.55,-0.68,0.96
25.229,-0.40,-0.43,-0.66,0.89
25.239,-0.25,-0.39,-0.61,0.76
25.250,-0.09,-0.38,-0.61,0.72
25.259,0.00,-0.23,-0.61,0.66
25.269,0.19,-0.23,-0.59,0.66
25.279,0.24,-0.32,-0.40,0.57
25.289,0.02,-0.40,-0.32,0.51
25.299,0.08,-0.52,-0.28,0.60
25.309,0.12,-0.64,-0.25,0.70
25.319,0.00,-0.42,-0.28,0.51
25.329,-0.14,-0.27,-0.32,0.44
