time,ax,ay,az,atotal
0.000,-0.17,-0.22,-0.05,0.28
0.010,-0.14,-0.21,-0.02,0.25
0.020,-0.20,-0.17,0.04,0.26
0.030,-0.22,-0.17,0.08,0.29
0.040,-0.23,-0.14,0.07,0.28
0.050,-0.25,-0.10,0.01,0.27
0.060,-0.33,-0.09,-0.04,0.34
0.070,-0.45,0.08,0.00,0.46
0.080,-0.30,-0.00,-0.12,0.32
0.090,-0.54,-0.32,-0.07,0.63
0.100,-0.65,-0.37,0.02,0.75
0.110,-0.64,-0.39,0.14,0.76
0.120,-0.62,-0.42,0.19,0.77
0.130,-0.61,-0.48,0.15,0.78
0.140,-0.64,-0.52,0.23,0.86
0.150,-0.70,-0.57,0.34,0.97
0.160,-0.61,-0.61,0.45,0.97
0.170,-0.33,-0.62,0.52,0.87
0.180,-0.03,-0.62,0.56,0.83
0.190,0.21,-0.59,0.57,0.84
0.200,0.42,-0.51,0.56,0.87
0.210,0.58,-0.43,0.59,0.93
0.220,0.66,-0.38,0.65,1.00
0.230,0.70,-0.33,0.67,1.03
0.240,0.66,-0.32,0.73,1.03
0.250,0.58,-0.32,0.78,1.02
0.260,0.41,-0.33,0.82,0.97
0.270,0.24,-0.34,0.92,1.01
0.280,0.12,-0.33,0.98,1.04
0.290,0.10,-0.29,0.98,1.03
0.300,0.19,-0.24,0.94,0.99
0.310,0.24,-0.22,0.94,1.00
0.320,0.22,-0.20,0.94,0.99
0.330,0.16,-0.14,0.97,0.99
0.340,0.01,-0.16,1.02,1.04
0.350,-0.18,-0.23,1.07,1.11
0.360,-0.34,-0.33,1.08,1.18
0.370,-0.43,-0.48,1.05,1.23
0.380,-0.47,-0.65,1.00,1.28
0.390,-0.50,-0.78,1.00,1.37
0.400,-0.54,-0.87,1.01,1.44
0.410,-0.57,-0.93,1.00,1.48
0.420,-0.55,-0.94,0.97,1.46
0.430,-0.54,-0.90,0.90,1.38
0.441,-0.55,-0.84,0.81,1.29
0.451,-0.59,-0.77,0.73,1.21
0.460,-0.63,-0.68,0.69,1.15
0.471,-0.65,-0.61,0.71,1.14
0.481,-0.69,-0.53,0.71,1.12
0.491,-0.66,-0.41,0.60,0.98
0.501,-0.46,-0.35,0.46,0.74
0.511,-0.26,-0.25,0.19,0.41
0.521,-0.39,0.02,0.01,0.40
0.531,-0.65,0.39,-0.25,0.80
0.541,-0.72,0.79,-0.81,1.34
0.551,-0.65,1.22,-1.20,1.84
0.561,-0.79,1.61,-1.08,2.10
0.571,-1.11,1.81,-0.64,2.22
0.581,-1.34,1.81,-0.19,2.26
0.591,-1.19,1.55,0.10,1.96
0.601,-0.54,1.13,0.15,1.26
0.611,0.35,0.58,0.03,0.68
0.621,1.07,0.01,-0.16,1.08
0.631,1.45,-0.36,-0.31,1.53
0.641,1.49,-0.45,-0.46,1.62
0.651,1.31,-0.26,-0.53,1.44
0.661,1.09,-0.02,-0.46,1.18
0.671,0.85,0.20,-0.20,0.89
0.681,0.57,0.32,0.04,0.65
0.691,0.39,0.24,0.26,0.52
0.701,0.27,0.04,0.54,0.60
0.711,0.21,-0.17,0.74,0.79
0.721,0.39,-0.32,0.78,0.93
0.731,0.87,-0.40,0.61,1.14
0.741,1.44,-0.38,0.40,1.54
0.751,1.72,-0.23,0.30,1.76
0.761,1.51,0.03,0.30,1.54
0.771,1.12,0.25,0.35,1.19
0.781,0.65,0.33,0.47,0.87
0.791,0.22,0.31,0.57,0.69
0.801,-0.14,0.20,0.60,0.65
0.811,-0.41,0.05,0.70,0.81
0.821,-0.66,-0.07,0.82,1.05
0.831,-0.88,-0.10,0.88,1.25
0.841,-1.01,-0.10,0.89,1.35
0.851,-1.11,-0.05,0.86,1.40
0.861,-1.13,0.03,0.76,1.36
0.871,-1.18,0.10,0.55,1.30
0.881,-1.24,0.18,0.31,1.29
0.891,-1.27,0.31,0.10,1.31
0.901,-1.27,0.52,0.01,1.37
0.911,-1.29,0.74,-0.00,1.49
0.921,-1.32,0.92,0.10,1.61
0.931,-1.41,1.02,0.24,1.75
0.941,-1.54,0.94,0.41,1.85
0.951,-1.61,0.76,0.58,1.87
0.961,-1.67,0.51,0.76,1.90
0.971,-1.75,0.24,0.81,1.95
0.981,-1.80,0.04,0.75,1.95
0.991,-1.79,-0.05,0.65,1.91
1.001,-1.76,-0.11,0.59,1.86
1.011,-1.71,-0.10,0.55,1.80
1.021,-1.75,-0.05,0.54,1.83
1.031,-1.89,-0.07,0.57,1.97
1.041,-2.09,-0.09,0.57,2.17
1.051,-2.31,-0.18,0.69,2.42
1.061,-2.50,-0.32,0.78,2.64
1.071,-2.63,-0.45,0.81,2.79
1.081,-2.63,-0.47,0.82,2.80
1.091,-2.52,-0.34,0.88,2.69
1.101,-2.27,-0.03,0.90,2.44
1.111,-1.97,0.34,0.88,2.19
1.121,-1.82,0.57,0.93,2.13
1.131,-1.76,0.65,0.99,2.12
1.141,-1.72,0.62,0.99,2.09
1.151,-1.70,0.54,0.92,2.00
1.161,-1.59,0.44,0.76,1.81
1.171,-1.44,0.29,0.76,1.65
1.181,-1.29,0.19,1.02,1.66
1.191,-1.23,0.21,1.34,1.83
1.201,-1.23,0.25,1.70,2.11
1.211,-1.20,0.24,2.07,2.41
1.221,-1.27,0.21,2.24,2.58
1.231,-1.10,0.13,2.13,2.40
1.241,-0.68,0.08,1.84,1.97
1.251,-0.32,0.05,1.81,1.84
1.261,-0.02,0.02,1.72,1.72
1.271,0.48,-0.03,1.04,1.14
1.281,1.01,-0.06,0.18,1.03
1.291,1.29,0.02,-0.26,1.32
1.301,1.20,0.25,-0.42,1.30
1.311,1.14,0.51,-0.90,1.54
1.321,1.45,0.67,-1.72,2.34
1.331,1.89,0.81,-2.31,3.10
1.341,1.84,1.08,-2.18,3.05
1.351,1.03,1.27,-1.08,1.96
1.361,0.20,1.20,0.39,1.27
1.371,0.36,0.77,1.33,1.58
1.381,1.61,-0.03,1.27,2.05
1.391,2.95,-0.92,0.56,3.14
1.401,3.92,-1.65,-0.22,4.26
1.411,4.86,-2.32,-1.04,5.49
1.421,5.70,-2.78,-1.60,6.54
1.431,5.79,-2.83,-1.76,6.68
1.441,4.93,-2.29,-1.47,5.63
1.451,3.74,-1.26,-0.87,4.04
1.461,2.44,-0.19,0.00,2.45
1.471,1.12,0.52,0.91,1.53
1.481,0.05,0.84,1.31,1.56
1.491,-0.36,0.78,0.92,1.26
1.501,0.13,0.46,0.13,0.50
1.512,1.09,0.08,-0.66,1.28
1.521,1.89,-0.24,-1.25,2.28
1.531,2.38,-0.42,-1.52,2.86
1.541,2.43,-0.55,-1.52,2.92
1.551,2.13,-0.65,-1.37,2.62
1.561,1.75,-0.65,-1.17,2.20
1.572,1.26,-0.52,-0.90,1.64
1.582,0.66,-0.37,-0.51,0.91
1.591,0.01,-0.24,-0.04,0.24
1.601,-0.68,-0.12,0.37,0.78
1.611,-1.23,0.06,0.61,1.37
1.622,-1.61,0.19,0.65,1.75
1.632,-1.85,0.26,0.53,1.94
1.642,-1.87,0.28,0.42,1.94
1.652,-1.79,0.22,0.37,1.84
1.662,-1.69,0.15,0.30,1.72
1.672,-1.58,0.08,0.22,1.59
1.682,-1.39,-0.04,0.13,1.40
1.692,-1.31,-0.28,0.25,1.36
1.702,-1.38,-0.59,0.39,1.55
1.712,-1.52,-0.82,0.42,1.78
1.722,-1.74,-1.00,0.47,2.07
1.732,-1.98,-1.06,0.55,2.31
1.742,-2.16,-1.01,0.55,2.45
1.752,-2.25,-0.87,0.39,2.44
1.762,-2.31,-0.56,0.21,2.39
1.772,-2.36,-0.27,0.24,2.39
1.782,-2.42,-0.06,0.23,2.43
1.792,-2.51,0.00,0.21,2.52
1.802,-2.64,-0.07,0.13,2.64
1.812,-2.82,-0.14,0.11,2.82
1.822,-3.06,-0.10,0.20,3.07
1.832,-3.36,0.02,0.24,3.36
1.842,-3.54,0.15,0.26,3.56
1.852,-3.48,0.22,0.33,3.50
1.862,-3.08,0.24,0.48,3.12
1.872,-2.45,0.18,0.71,2.55
1.882,-1.77,0.02,1.16,2.11
1.892,-1.21,-0.18,1.71,2.10
1.902,-0.77,-0.35,2.19,2.35
1.912,-0.59,-0.45,2.46,2.57
1.922,-0.49,-0.48,2.45,2.54
1.932,-0.38,-0.40,2.04,2.12
1.942,-0.38,-0.26,1.53,1.60
1.952,-0.51,-0.14,1.20,1.32
1.962,-0.54,-0.19,0.93,1.09
1.972,-0.38,-0.42,0.89,1.06
1.982,-0.15,-0.69,1.10,1.31
1.992,0.04,-0.92,1.45,1.72
2.002,0.08,-1.01,1.87,2.12
2.012,-0.02,-0.95,2.23,2.42
2.022,-0.16,-0.77,2.53,2.65
2.032,-0.31,-0.59,2.66,2.74
2.042,-0.50,-0.55,2.64,2.74
2.052,-0.69,-0.69,2.64,2.82
2.062,-0.81,-0.86,2.64,2.89
2.072,-0.82,-0.81,2.41,2.67
2.082,-0.49,-0.70,1.63,1.84
2.092,0.37,-0.55,0.37,0.75
2.102,1.40,-0.46,-0.97,1.76
2.112,2.24,-0.53,-2.31,3.26
2.122,2.89,-0.55,-3.53,4.59
2.132,3.63,-0.74,-4.63,5.93
2.142,4.85,-1.01,-5.05,7.07
2.152,5.54,-1.08,-4.46,7.19
2.162,4.32,-0.91,-3.09,5.39
2.172,2.19,-0.48,-1.22,2.55
2.182,0.11,0.47,0.41,0.63
2.192,-1.14,1.81,0.81,2.29
2.202,-0.72,2.92,0.20,3.01
2.212,0.64,3.37,-0.40,3.45
2.222,1.78,3.19,-1.03,3.80
2.232,2.97,2.75,-1.72,4.40
2.242,4.38,1.99,-2.01,5.22
2.252,5.59,0.72,-2.07,6.01
2.262,5.82,-0.81,-2.05,6.23
2.272,4.93,-1.80,-1.81,5.55
2.282,3.70,-2.15,-1.36,4.49
2.292,2.17,-1.86,-0.87,2.99
2.302,0.83,-1.33,-0.66,1.70
2.312,0.62,-0.80,-0.73,1.25
2.322,1.18,-0.21,-0.85,1.47
2.332,1.77,0.46,-1.07,2.12
2.342,2.11,0.88,-1.21,2.59
2.352,2.00,1.01,-1.09,2.49
2.362,1.44,0.89,-0.74,1.85
2.372,0.81,0.78,-0.26,1.15
2.382,0.13,0.55,0.26,0.62
2.392,-0.49,0.22,0.66,0.86
2.402,-1.01,-0.07,0.84,1.32
2.412,-1.46,-0.28,0.82,1.70
2.422,-1.87,-0.37,0.61,2.00
2.432,-2.11,-0.32,0.38,2.16
2.442,-2.24,-0.04,0.20,2.25
2.452,-2.16,0.40,0.06,2.20
2.462,-1.82,0.83,-0.10,2.00
2.472,-1.40,1.10,-0.24,1.80
2.482,-1.11,1.19,-0.25,1.65
2.492,-0.97,1.16,-0.26,1.53
2.502,-0.86,1.04,-0.35,1.39
2.512,-0.78,0.87,-0.31,1.21
2.522,-0.79,0.56,-0.05,0.97
2.532,-0.89,0.26,0.28,0.96
2.542,-1.10,0.03,0.56,1.24
2.552,-1.39,-0.11,0.72,1.57
2.562,-1.71,-0.20,0.83,1.91
2.572,-1.88,-0.24,0.86,2.08
2.583,-1.85,-0.16,0.83,2.03
2.592,-1.63,-0.09,0.85,1.84
2.602,-1.33,-0.07,0.89,1.60
2.613,-1.14,-0.08,0.83,1.41
2.622,-1.11,-0.01,0.70,1.32
2.632,-1.17,0.16,0.69,1.37
2.643,-1.42,0.41,0.76,1.66
2.652,-1.98,0.65,0.82,2.24
2.662,-2.60,0.73,0.85,2.83
2.672,-3.08,0.66,0.77,3.24
2.683,-3.25,0.46,0.77,3.37
2.692,-3.32,0.21,0.73,3.41
2.702,-3.44,0.02,0.50,3.48
2.713,-3.34,-0.14,0.24,3.35
2.723,-3.07,-0.20,0.25,3.08
2.732,-2.70,-0.09,0.44,2.74
2.743,-2.28,0.16,0.52,2.35
2.753,-1.84,0.58,0.75,2.07
2.763,-1.35,1.03,1.08,2.01
2.773,-0.93,1.36,1.30,2.09
2.783,-0.61,1.52,1.42,2.17
2.793,-0.43,1.52,1.36,2.08
2.803,-0.34,1.38,1.37,1.97
2.813,-0.23,1.13,1.37,1.80
2.823,-0.05,0.86,1.28,1.55
2.833,0.14,0.76,1.32,1.53
2.843,0.21,0.74,1.57,1.75
2.853,0.18,0.72,1.82,1.97
2.863,0.16,0.77,1.93,2.08
2.873,0.06,0.73,1.86,1.99
2.883,0.04,0.55,1.57,1.67
2.893,0.18,0.24,1.51,1.54
2.903,0.60,0.04,1.10,1.26
2.913,1.25,0.01,0.29,1.29
2.923,1.79,0.21,-0.24,1.82
2.933,1.91,0.62,-0.20,2.02
2.943,1.67,0.90,0.08,1.90
2.953,1.65,0.94,-0.40,1.94
2.963,2.05,0.68,-1.43,2.59
2.973,2.39,0.18,-2.42,3.41
2.983,2.28,-0.42,-2.96,3.76
2.993,1.94,-1.01,-2.75,3.51
3.003,1.66,-1.58,-2.12,3.12
3.013,1.68,-2.18,-1.51,3.14
3.023,2.12,-2.73,-1.03,3.61
3.033,2.82,-3.11,-0.82,4.27
3.043,3.58,-3.15,-0.83,4.84
3.053,4.48,-2.84,-1.01,5.40
3.063,5.18,-2.20,-1.33,5.78
3.073,5.30,-1.28,-1.65,5.70
3.083,4.92,-0.44,-1.81,5.26
3.093,3.99,0.22,-1.94,4.44
3.103,2.75,0.67,-1.97,3.45
3.113,1.54,0.84,-1.74,2.47
3.123,0.58,0.72,-1.31,1.61
3.133,-0.01,0.56,-0.96,1.11
3.143,-0.06,0.40,-0.78,0.88
3.153,0.18,0.22,-0.71,0.76
3.163,0.49,0.12,-0.61,0.80
3.173,0.75,0.14,-0.47,0.90
3.183,0.81,0.16,-0.25,0.86
3.193,0.62,0.21,-0.03,0.66
3.203,0.27,0.24,0.09,0.37
3.213,-0.05,0.27,0.15,0.31
3.223,-0.30,0.28,0.14,0.43
3.233,-0.52,0.22,0.09,0.57
3.243,-0.82,0.11,0.07,0.83
3.253,-1.07,0.03,0.04,1.07
3.263,-1.23,0.02,-0.08,1.23
3.273,-1.34,-0.05,-0.12,1.35
3.283,-1.41,-0.23,-0.13,1.43
3.293,-1.45,-0.46,-0.16,1.53
3.303,-1.48,-0.66,-0.14,1.63
3.313,-1.59,-0.87,-0.09,1.81
3.323,-1.69,-1.03,-0.07,1.98
3.333,-1.68,-1.11,-0.03,2.01
3.343,-1.61,-1.10,0.07,1.95
3.353,-1.55,-1.06,0.20,1.89
3.363,-1.65,-1.03,0.25,1.96
3.373,-1.90,-1.06,0.15,2.18
3.383,-2.16,-1.08,0.01,2.42
3.393,-2.42,-1.03,-0.15,2.64
3.403,-2.56,-0.94,-0.22,2.74
3.413,-2.54,-0.83,-0.24,2.69
3.423,-2.40,-0.69,-0.26,2.51
3.433,-2.34,-0.56,-0.25,2.42
3.443,-2.37,-0.45,-0.08,2.41
3.453,-2.51,-0.34,0.20,2.54
3.463,-2.78,-0.15,0.54,2.84
3.473,-3.23,0.07,0.80,3.33
3.483,-3.57,0.21,0.89,3.69
3.493,-3.48,0.24,0.72,3.56
3.503,-2.80,0.12,0.34,2.82
3.513,-2.04,-0.09,0.15,2.05
3.523,-1.77,-0.18,0.18,1.79
3.533,-1.85,-0.19,0.30,1.88
3.543,-1.91,-0.15,0.50,1.98
3.553,-1.89,-0.12,0.74,2.03
3.563,-1.84,-0.10,1.07,2.13
3.573,-1.68,-0.21,1.51,2.27
3.583,-1.35,-0.35,1.87,2.33
3.593,-0.73,-0.41,2.04,2.20
3.603,0.10,-0.37,2.10,2.13
3.613,0.65,-0.21,1.99,2.11
3.623,0.80,-0.03,1.74,1.92
3.633,0.89,0.10,1.59,1.82
3.643,1.13,0.19,1.50,1.89
3.653,1.34,0.11,1.49,2.01
3.663,1.35,-0.04,1.53,2.04
3.673,1.19,-0.21,1.66,2.05
3.683,0.90,-0.42,1.94,2.18
3.693,0.41,-0.57,2.26,2.37
3.703,-0.01,-0.74,2.61,2.71
3.713,-0.25,-0.94,2.89,3.05
3.723,-0.42,-1.14,2.94,3.18
3.733,-0.61,-1.29,2.84,3.18
3.743,-0.68,-1.32,2.80,3.17
3.753,-0.76,-1.25,2.88,3.23
3.763,-0.92,-0.76,2.82,3.06
3.773,-1.00,0.09,2.85,3.02
3.784,-1.94,-1.01,2.97,3.69
3.793,-1.57,-0.24,1.72,2.34
3.804,-0.48,0.04,0.63,0.80
3.814,0.58,-0.10,-0.71,0.93
3.824,1.48,-0.19,-1.57,2.17
3.833,2.03,-0.31,-2.50,3.24
3.844,2.90,-0.57,-3.88,4.88
3.854,4.45,-0.69,-5.07,6.78
3.864,5.76,-0.67,-5.43,7.94
3.874,5.55,-0.28,-5.03,7.50
3.884,4.26,0.47,-3.96,5.84
3.894,2.75,1.22,-2.18,3.72
3.904,0.76,2.06,-0.35,2.22
3.914,-1.39,3.18,0.06,3.48
3.924,-2.30,4.23,-1.06,4.93
3.934,-0.66,4.16,-2.42,4.86
3.944,2.34,3.34,-2.68,4.88
3.954,4.58,2.13,-2.74,5.74
3.964,5.61,0.43,-3.87,6.83
3.974,6.54,-1.11,-3.86,7.68
3.984,7.04,-1.92,-2.96,7.87
3.994,5.55,-2.15,-2.01,6.28
4.004,3.29,-2.10,-0.88,4.00
4.014,1.85,-2.00,0.17,2.73
4.024,1.07,-1.90,0.70,2.29
4.034,0.88,-1.96,0.46,2.20
4.044,0.27,-2.04,-0.09,2.06
4.054,-0.08,-1.73,-0.51,1.81
4.064,0.20,-1.41,-0.83,1.65
4.074,0.61,-0.93,-0.66,1.29
4.084,0.77,-0.26,-0.27,0.86
4.094,0.79,0.39,0.09,0.88
4.104,0.66,0.96,0.47,1.25
4.114,0.39,1.36,0.80,1.62
4.124,0.04,1.53,0.85,1.75
4.134,-0.34,1.57,0.64,1.73
4.144,-0.59,1.62,0.45,1.78
4.154,-0.84,1.59,0.40,1.85
4.164,-1.15,1.34,0.43,1.82
4.174,-1.51,0.91,0.48,1.83
4.184,-1.90,0.37,0.62,2.04
4.194,-2.23,-0.14,0.68,2.34
4.204,-2.44,-0.52,0.69,2.59
4.214,-2.53,-0.77,0.60,2.71
4.224,-2.55,-0.82,0.36,2.70
4.234,-2.37,-0.72,0.10,2.48
4.244,-1.94,-0.45,-0.07,2.00
4.254,-1.50,0.05,-0.18,1.52
4.264,-1.34,0.49,-0.21,1.44
4.274,-1.34,0.71,-0.23,1.54
4.284,-1.39,0.76,-0.18,1.60
4.294,-1.48,0.69,-0.08,1.63
4.304,-1.66,0.47,0.04,1.73
4.314,-1.82,0.16,0.10,1.83
4.324,-1.84,-0.20,0.10,1.85
4.334,-1.71,-0.47,0.16,1.78
4.344,-1.64,-0.54,0.34,1.76
4.354,-1.65,-0.44,0.55,1.79
4.364,-1.73,-0.26,0.69,1.88
4.374,-1.88,-0.06,0.75,2.03
4.384,-2.01,0.17,0.75,2.16
4.394,-2.08,0.46,0.74,2.25
4.404,-2.03,0.72,0.71,2.27
4.414,-1.90,0.93,0.57,2.19
4.424,-1.70,1.10,0.45,2.07
4.434,-1.47,1.23,0.46,1.97
4.444,-1.28,1.32,0.56,1.92
4.454,-1.24,1.31,0.64,1.91
4.464,-1.31,1.09,0.55,1.79
4.474,-1.38,0.71,0.42,1.61
4.484,-1.38,0.33,0.31,1.46
4.494,-1.46,-0.03,0.35,1.50
4.504,-1.59,-0.21,0.60,1.72
4.514,-1.76,-0.22,0.94,2.01
4.524,-1.75,-0.13,1.17,2.11
4.534,-1.49,-0.04,1.27,1.96
4.544,-1.13,0.02,1.34,1.75
4.554,-0.77,0.08,1.27,1.49
4.564,-0.30,0.12,1.15,1.20
4.574,0.07,0.21,1.21,1.23
4.584,0.10,0.29,1.30,1.34
4.594,0.01,0.40,1.29,1.35
4.604,-0.08,0.59,1.41,1.53
4.614,-0.15,0.72,1.57,1.74
4.624,-0.25,0.85,1.76,1.97
4.634,-0.27,0.83,2.15,2.32
4.644,-0.21,0.64,2.09,2.19
4.654,0.31,0.37,1.32,1.40
4.664,0.94,0.20,0.53,1.09
4.674,1.20,0.22,0.27,1.25
4.684,1.24,0.27,0.46,1.35
4.694,1.32,0.22,0.19,1.35
4.704,1.86,0.02,-1.09,2.15
4.714,2.88,-0.10,-2.81,4.02
4.724,3.91,-0.13,-4.20,5.74
4.734,4.24,0.00,-4.80,6.40
4.744,3.50,0.34,-4.45,5.68
4.754,2.29,0.38,-3.39,4.11
4.764,1.11,0.02,-2.05,2.33
4.774,0.15,-0.62,-0.80,1.02
4.784,-0.43,-1.42,0.11,1.49
4.794,-0.49,-2.33,0.45,2.43
4.804,0.34,-3.14,0.01,3.16
4.814,1.81,-3.45,-0.79,3.98
4.824,3.29,-3.12,-1.32,4.72
4.834,4.33,-2.35,-1.48,5.14
4.844,4.61,-1.43,-1.52,5.06
4.854,4.05,-0.45,-1.50,4.34
4.865,3.14,0.74,-1.31,3.48
4.874,2.44,1.57,-0.89,3.04
4.885,1.50,1.68,-0.21,2.26
4.895,0.53,1.18,0.54,1.40
4.904,-0.15,0.52,0.94,1.09
4.914,-0.36,-0.05,0.78,0.86
4.925,-0.09,-0.43,0.24,0.50
4.935,0.36,-0.64,-0.12,0.74
4.945,0.53,-0.65,-0.29,0.88
4.954,0.36,-0.43,-0.39,0.69
4.965,0.29,-0.03,-0.44,0.52
4.975,-0.36,0.01,-0.25,0.44
4.985,-0.85,-0.04,-0.06,0.85
4.994,-1.29,-0.17,0.10,1.30
5.005,-1.54,-0.40,0.19,1.60
5.015,-1.87,-0.69,0.20,2.00
5.025,-1.75,-0.94,0.09,1.98
5.035,-1.48,-1.13,-0.08,1.86
5.045,-1.36,-1.22,-0.18,1.84
5.055,-1.34,-1.25,-0.13,1.84
5.065,-1.38,-1.03,-0.04,1.73
5.075,-1.46,-0.63,0.05,1.59
5.085,-1.50,-0.23,0.15,1.52
5.095,-1.49,-0.02,0.31,1.52
5.105,-1.48,-0.04,0.39,1.53
5.115,-1.31,-0.16,0.27,1.34
5.125,-0.90,-0.30,0.02,0.95
5.135,-0.49,-0.48,-0.19,0.71
5.145,-0.20,-0.69,-0.16,0.74
5.155,-0.10,-0.75,0.02,0.75
5.165,-0.20,-0.74,0.27,0.82
5.175,-0.41,-0.69,0.53,0.96
5.185,-0.71,-0.54,0.77,1.18
5.195,-1.16,-0.31,0.97,1.55
5.205,-1.52,-0.07,1.14,1.90
5.215,-1.89,0.16,1.15,2.22
5.225,-2.16,0.28,1.06,2.43
5.235,-2.09,0.35,0.83,2.28
5.245,-1.91,0.42,0.76,2.10
5.255,-2.32,0.40,0.80,2.48
5.265,-2.44,0.29,0.82,2.59
5.275,-2.57,0.05,0.80,2.69
5.285,-2.68,-0.15,0.85,2.81
5.295,-2.59,-0.16,0.91,2.75
5.305,-2.35,-0.16,0.87,2.51
5.315,-2.02,-0.23,0.78,2.18
5.325,-2.02,-0.21,0.67,2.14
5.335,-2.24,-0.22,0.56,2.32
5.345,-2.39,-0.39,0.54,2.48
5.355,-2.02,-0.54,0.73,2.21
5.365,-1.51,-0.57,1.17,1.99
5.375,-1.13,-0.60,1.52,1.98
5.385,-0.61,-0.61,1.70,1.90
5.395,-0.13,-0.63,1.85,1.96
5.405,0.29,-0.67,1.95,2.08
5.415,0.67,-0.88,1.92,2.22
5.425,1.07,-1.19,1.97,2.53
5.435,1.44,-1.47,2.24,3.04
5.445,1.52,-1.58,2.40,3.25
5.455,1.36,-1.50,2.35,3.11
5.465,0.92,-1.46,2.36,2.92
5.475,0.33,-1.31,2.41,2.76
5.485,-0.15,-1.32,2.58,2.91
5.495,-0.70,-1.34,2.81,3.19
5.505,-1.06,-1.16,2.91,3.30
5.515,-1.28,-0.72,2.66,3.04
5.525,-0.90,-0.20,1.80,2.02
5.535,0.14,0.01,0.52,0.54
5.545,0.99,-0.31,-0.75,1.28
5.555,1.62,-0.68,-1.79,2.51
5.565,2.13,-0.72,-2.81,3.60
5.575,2.85,-0.53,-4.02,4.95
5.585,3.70,-0.23,-4.56,5.87
5.595,3.72,-0.08,-4.06,5.51
5.605,2.80,0.10,-3.23,4.27
5.615,1.53,0.64,-2.25,2.80
5.625,0.53,1.45,-1.54,2.18
5.635,0.06,2.37,-1.37,2.74
5.645,0.40,3.61,-1.97,4.13
5.655,1.65,4.23,-2.70,5.29
5.665,3.15,3.61,-2.83,5.56
5.675,4.82,2.63,-2.47,6.02
5.685,5.66,1.39,-2.06,6.18
5.695,5.57,-0.00,-1.97,5.91
5.705,5.00,-1.24,-1.74,5.44
5.715,4.27,-1.95,-1.30,4.88
5.725,3.02,-2.23,-0.77,3.83
5.735,1.59,-2.18,-0.40,2.73
5.745,0.44,-1.87,-0.02,1.92
5.755,-0.01,-1.47,0.44,1.54
5.765,0.00,-1.13,0.69,1.32
5.775,0.00,-0.78,0.66,1.02
5.785,-0.01,-0.43,0.39,0.58
5.795,0.28,-0.05,0.01,0.29
5.805,0.82,0.57,-0.22,1.02
5.815,1.11,0.92,-0.05,1.45
5.825,1.13,0.95,0.11,1.48
5.835,0.84,0.98,0.21,1.31
5.845,0.32,1.00,0.35,1.11
5.855,-0.12,0.95,0.36,1.03
5.865,-0.51,0.89,0.37,1.09
5.875,-0.90,0.75,0.35,1.22
5.885,-1.20,0.47,0.24,1.31
5.895,-1.38,0.08,0.22,1.40
5.905,-1.57,-0.33,0.28,1.63
5.915,-2.14,-0.51,0.25,2.21
5.925,-2.51,-0.46,0.13,2.56
5.935,-2.56,-0.36,0.10,2.58
5.945,-2.57,-0.09,-0.01,2.57
5.955,-2.51,0.36,-0.29,2.55
5.965,-2.16,0.86,-0.49,2.38
5.975,-1.78,1.13,-0.39,2.14
5.985,-1.39,1.15,-0.22,1.82
5.995,-1.35,1.05,-0.09,1.71
6.005,-1.43,0.84,0.08,1.66
6.015,-1.45,0.61,0.24,1.59
6.025,-1.47,0.38,0.46,1.59
6.035,-1.44,0.11,0.70,1.60
6.046,-1.30,-0.11,0.90,1.59
6.056,-1.20,-0.28,1.00,1.59
6.065,-1.13,-0.37,1.01,1.56
6.075,-1.11,-0.44,1.03,1.58
6.085,-1.18,-0.40,1.00,1.60
6.096,-1.40,-0.23,0.96,1.71
6.106,-1.69,-0.04,0.99,1.96
6.116,-2.01,0.15,0.97,2.23
6.126,-2.27,0.23,0.85,2.43
6.136,-2.34,0.25,0.71,2.46
6.146,-2.26,0.32,0.60,2.36
6.156,-2.11,0.28,0.53,2.20
6.166,-1.98,0.37,0.43,2.06
6.176,-1.82,0.24,0.45,1.89
6.186,-1.55,0.11,0.45,1.62
6.196,-1.37,0.07,0.54,1.47
6.206,-1.18,0.08,0.75,1.40
6.216,-0.97,0.07,0.99,1.39
6.226,-0.75,0.03,1.35,1.55
6.236,-0.57,0.05,1.77,1.86
6.246,-0.50,0.15,2.02,2.09
6.256,-0.44,0.25,2.05,2.11
6.266,-0.41,0.26,1.87,1.93
6.276,-0.42,0.21,1.54,1.61
6.286,-0.40,0.12,1.20,1.27
6.296,-0.25,0.01,1.02,1.05
6.306,-0.13,0.07,1.03,1.04
6.316,-0.22,0.34,1.24,1.31
6.326,-0.32,0.55,1.67,1.79
6.336,-0.19,0.57,1.91,2.01
6.346,0.28,0.55,1.36,1.49
6.356,0.89,0.56,0.57,1.20
6.366,1.38,0.55,0.15,1.50
6.376,1.65,0.52,0.07,1.73
6.386,1.65,0.22,0.06,1.67
6.396,1.59,-0.12,-0.48,1.67
6.406,1.63,-0.14,-1.18,2.02
6.416,1.38,-0.01,-1.39,1.95
6.426,0.75,0.14,-1.30,1.51
6.436,0.42,0.24,-1.45,1.53
6.446,0.48,0.07,-1.83,1.89
6.456,0.79,-0.25,-2.07,2.22
6.466,1.33,-0.78,-2.34,2.81
6.476,2.14,-1.53,-2.72,3.79
6.486,3.24,-2.12,-3.13,4.98
6.496,4.60,-2.56,-3.44,6.29
6.506,5.46,-2.76,-3.36,6.98
6.516,5.39,-2.62,-2.60,6.54
6.526,4.56,-1.94,-1.85,5.29
6.536,3.32,-0.87,-0.99,3.58
6.546,2.36,0.17,-0.08,2.37
6.556,1.41,0.84,0.71,1.79
6.566,0.55,1.18,1.11,1.71
6.576,0.21,1.31,0.82,1.56
6.586,0.58,1.16,0.30,1.33
6.596,1.31,0.95,-0.24,1.63
6.606,1.68,0.80,-0.69,1.99
6.616,1.54,0.66,-0.91,1.90
6.626,1.14,0.59,-1.00,1.63
6.636,0.73,0.48,-0.86,1.23
6.646,0.37,0.30,-0.66,0.81
6.656,0.02,-0.17,-0.48,0.51
6.666,-0.77,-0.33,-0.53,0.99
6.676,-0.85,-0.42,-0.39,1.03
6.686,-0.74,-0.61,-0.41,1.05
6.696,-1.36,-0.75,-0.27,1.58
6.706,-1.43,-0.52,0.02,1.52
6.716,-1.65,-0.18,0.15,1.66
6.726,-1.86,-0.11,0.19,1.87
6.736,-1.67,-0.23,0.21,1.70
6.746,-1.47,-0.40,0.13,1.53
6.756,-1.51,-0.59,-0.04,1.62
6.766,-1.51,-0.83,-0.26,1.74
6.776,-1.47,-1.04,-0.50,1.87
6.786,-1.43,-1.23,-0.58,1.97
6.796,-1.45,-1.34,-0.55,2.05
6.806,-1.65,-1.26,-0.47,2.12
6.816,-1.82,-0.97,-0.37,2.10
6.826,-1.87,-0.61,-0.26,1.98
6.836,-1.82,-0.31,-0.13,1.85
6.846,-1.66,-0.07,0.05,1.67
6.856,-1.45,0.08,0.18,1.47
6.866,-1.25,0.12,0.22,1.28
6.876,-1.11,0.01,0.21,1.13
6.886,-1.02,-0.15,0.18,1.05
6.896,-1.02,-0.34,0.17,1.09
6.906,-1.22,-0.44,0.23,1.32
6.916,-1.52,-0.43,0.34,1.62
6.926,-1.84,-0.41,0.45,1.94
6.936,-1.95,-0.42,0.41,2.04
6.946,-1.77,-0.44,0.35,1.86
6.956,-1.47,-0.42,0.36,1.57
6.966,-1.35,-0.30,0.49,1.47
6.976,-1.50,-0.19,0.62,1.63
6.986,-1.78,-0.10,0.74,1.93
6.996,-2.00,-0.05,0.83,2.17
7.006,-2.27,-0.05,0.93,2.45
7.016,-2.48,-0.07,1.06,2.70
7.027,-2.48,-0.16,1.18,2.75
7.036,-2.27,-0.32,1.28,2.63
7.047,-1.81,-0.38,1.32,2.27
7.056,-1.14,-0.36,1.30,1.77
7.066,-0.46,-0.29,1.42,1.52
7.076,0.08,-0.22,1.68,1.69
7.087,0.42,-0.13,1.96,2.01
7.096,0.58,-0.14,2.06,2.15
7.106,0.69,-0.23,2.01,2.14
7.116,0.76,-0.39,1.97,2.14
7.127,0.61,-0.58,1.87,2.05
7.136,0.33,-0.73,1.83,1.99
7.147,-0.04,-0.78,1.90,2.06
7.156,-0.41,-0.81,2.00,2.19
7.167,-0.80,-0.88,2.02,2.34
7.176,-1.05,-1.05,1.98,2.47
7.187,-1.10,-1.26,2.01,2.61
7.196,-1.04,-1.47,2.23,2.87
7.207,-0.67,-1.48,2.61,3.07
7.217,-0.45,-1.33,3.05,3.35
7.226,-0.50,-0.92,3.37,3.53
7.236,-0.53,-0.36,3.40,3.45
7.247,-0.05,0.06,2.56,2.56
7.256,0.95,0.00,1.30,1.61
7.266,2.05,-0.28,0.30,2.09
7.277,2.89,-0.45,-0.43,2.95
7.287,3.47,-0.66,-1.74,3.94
7.297,4.56,-0.77,-3.03,5.53
7.307,5.39,-0.94,-3.47,6.48
7.317,4.52,-1.24,-2.95,5.54
7.327,2.29,-1.10,-2.08,3.28
7.337,0.43,-0.31,-1.34,1.44
7.347,-0.51,0.94,-1.11,1.54
7.357,-0.38,2.17,-1.66,2.76
7.367,0.76,2.91,-2.61,3.98
7.377,2.23,3.20,-3.40,5.17
7.387,3.77,3.08,-3.77,6.16
7.397,4.85,2.57,-3.71,6.63
7.407,5.03,1.72,-3.18,6.19
7.417,4.20,0.58,-2.47,4.91
7.427,3.28,-0.35,-1.65,3.69
7.437,2.23,-0.82,-1.14,2.63
7.447,1.22,-1.11,-0.84,1.86
7.457,0.84,-1.04,-0.73,1.52
7.467,0.50,-0.84,-0.56,1.13
7.477,0.54,-0.69,-0.48,1.00
7.487,0.71,-0.62,-0.50,1.07
7.497,0.95,-0.60,-0.54,1.24
7.507,1.29,-0.62,-0.52,1.52
7.517,1.36,-0.66,-0.40,1.57
7.527,1.23,-0.68,-0.24,1.43
7.537,0.97,-0.56,-0.09,1.12
7.547,0.60,-0.34,-0.10,0.69
7.557,0.18,-0.06,-0.11,0.21
7.567,-0.11,0.18,-0.11,0.24
7.577,-0.33,0.37,-0.05,0.50
7.587,-0.58,0.52,-0.06,0.78
7.597,-0.86,0.62,-0.08,1.07
7.607,-1.11,0.58,-0.06,1.25
7.617,-1.25,0.51,-0.09,1.35
7.627,-1.39,0.43,-0.11,1.45
7.637,-1.58,0.40,-0.03,1.63
7.647,-1.73,0.38,0.07,1.77
7.657,-1.77,0.35,0.02,1.81
7.667,-1.78,0.37,-0.15,1.83
7.677,-1.82,0.45,-0.27,1.90
7.687,-1.96,0.53,-0.34,2.06
7.697,-2.07,0.60,-0.38,2.19
7.707,-2.12,0.59,-0.43,2.24
7.717,-2.08,0.50,-0.45,2.19
7.727,-2.00,0.31,-0.52,2.09
7.737,-1.90,0.08,-0.51,1.97
7.747,-1.90,-0.07,-0.39,1.94
7.757,-1.95,-0.10,-0.18,1.96
7.767,-1.98,-0.08,0.07,1.99
7.777,-1.93,-0.03,0.28,1.95
7.787,-1.85,0.04,0.48,1.91
7.797,-1.72,0.03,0.70,1.86
7.807,-1.61,-0.02,0.90,1.84
7.817,-1.52,-0.06,1.01,1.83
7.827,-1.50,-0.08,1.03,1.82
7.837,-1.57,-0.11,0.96,1.84
7.847,-1.71,-0.08,0.95,1.96
7.857,-1.92,-0.02,0.93,2.13
7.867,-2.00,0.07,0.79,2.15
7.877,-1.68,0.22,0.56,1.79
7.887,-1.04,0.30,0.40,1.16
7.897,-0.44,0.37,0.39,0.69
7.907,-0.09,0.48,0.50,0.70
7.917,-0.01,0.54,0.64,0.84
7.927,-0.13,0.53,0.71,0.90
7.937,-0.26,0.45,0.81,0.97
7.947,-0.34,0.27,1.01,1.10
7.957,-0.63,0.03,1.27,1.42
7.967,-1.07,-0.13,1.66,1.97
7.977,-1.46,-0.23,1.89,2.40
7.987,-1.60,-0.26,1.91,2.50
7.997,-1.42,-0.27,1.79,2.30
8.007,-1.09,-0.24,1.75,2.07
8.017,-0.75,-0.23,1.74,1.91
8.027,-0.46,-0.18,1.68,1.75
8.037,-0.29,-0.10,1.49,1.52
8.047,-0.17,-0.01,1.27,1.29
8.057,-0.11,0.13,1.09,1.10
8.067,-0.10,0.28,1.07,1.11
8.077,-0.20,0.39,1.17,1.25
8.087,-0.49,0.39,1.31,1.45
8.097,-0.90,0.32,1.36,1.66
8.107,-1.38,0.21,1.35,1.94
8.117,-1.82,0.07,1.41,2.31
8.127,-1.90,-0.12,1.35,2.33
8.137,-1.27,-0.20,0.77,1.50
8.147,-0.45,-0.19,0.08,0.50
8.157,0.18,-0.06,-0.20,0.27
8.167,0.62,0.16,-0.20,0.68
8.177,0.99,0.20,-0.38,1.07
8.187,1.48,0.10,-1.05,1.81
8.197,2.36,0.01,-1.90,3.03
8.207,3.30,-0.04,-2.68,4.25
8.217,3.73,0.00,-2.99,4.78
8.227,3.39,0.01,-2.86,4.43
8.237,2.63,-0.12,-2.45,3.60
8.248,2.03,-0.39,-1.91,2.81
8.257,1.74,-0.79,-1.49,2.42
8.267,1.71,-1.18,-1.34,2.47
8.278,1.83,-1.55,-1.41,2.78
8.288,2.08,-1.73,-1.58,3.14
8.297,2.69,-1.69,-1.76,3.63
8.307,3.34,-1.46,-1.91,4.11
8.318,3.72,-0.97,-1.94,4.31
8.328,3.71,-0.35,-1.74,4.11
8.338,3.21,0.20,-1.21,3.43
8.348,2.31,0.59,-0.57,2.45
8.357,1.25,0.76,-0.13,1.47
8.368,0.57,0.70,0.10,0.91
8.378,0.63,0.38,-0.03,0.73
8.388,1.05,-0.04,-0.34,1.10
8.397,1.33,-0.32,-0.55,1.48
8.408,1.20,-0.35,-0.51,1.35
8.418,1.09,-0.19,-0.26,1.14
8.428,1.11,-0.03,-0.04,1.11
8.437,1.02,0.07,0.05,1.03
8.448,0.76,0.18,0.12,0.79
8.458,0.44,0.24,0.17,0.53
8.468,0.10,0.16,0.19,0.27
8.478,-0.18,0.01,0.11,0.21
8.488,-0.44,-0.11,0.04,0.45
8.498,-0.68,-0.09,-0.03,0.69
8.508,-0.94,-0.03,0.00,0.94
8.518,-1.22,0.03,0.07,1.22
8.528,-1.54,-0.01,0.07,1.54
8.538,-1.87,-0.11,0.08,1.88
8.548,-2.06,-0.27,0.08,2.08
8.558,-2.15,-0.45,0.02,2.20
8.568,-2.24,-0.62,-0.12,2.33
8.578,-2.29,-0.71,-0.31,2.41
8.588,-2.28,-0.67,-0.43,2.42
8.598,-2.26,-0.63,-0.48,2.40
8.608,-2.12,-0.59,-0.50,2.26
8.618,-1.87,-0.60,-0.46,2.02
8.628,-1.60,-0.58,-0.31,1.73
8.638,-1.48,-0.53,-0.06,1.57
8.648,-1.49,-0.45,0.12,1.56
8.658,-1.56,-0.36,0.25,1.62
8.668,-1.61,-0.28,0.43,1.69
8.678,-1.76,-0.16,0.65,1.88
8.688,-2.00,-0.03,0.85,2.17
8.698,-2.10,0.10,0.98,2.32
8.708,-2.00,0.08,1.05,2.26
8.718,-1.77,-0.09,0.99,2.03
8.728,-1.58,-0.24,0.77,1.78
8.738,-1.52,-0.32,0.63,1.68
8.748,-1.62,-0.37,0.69,1.79
8.758,-1.97,-0.39,0.87,2.19
8.768,-2.36,-0.33,0.99,2.58
8.778,-2.62,-0.27,1.08,2.84
8.788,-2.69,-0.20,1.18,2.94
8.798,-2.57,-0.14,1.13,2.81
8.808,-2.20,-0.08,1.02,2.42
8.818,-1.69,-0.03,0.92,1.93
8.828,-1.18,-0.05,0.85,1.45
8.838,-0.73,-0.14,0.82,1.11
8.848,-0.31,-0.26,0.87,0.96
8.858,0.03,-0.44,0.90,1.00
8.868,0.31,-0.70,0.96,1.23
8.878,0.58,-0.88,1.12,1.54
8.888,0.89,-0.99,1.34,1.89
8.898,1.10,-1.02,1.57,2.17
8.908,1.15,-0.96,1.93,2.44
8.918,1.01,-0.86,2.36,2.70
8.928,0.80,-0.78,2.77,2.99
8.938,0.55,-0.75,2.97,3.11
8.948,0.23,-0.71,2.91,3.00
8.958,-0.08,-0.67,2.66,2.75
8.968,-0.30,-0.67,2.27,2.38
8.978,-0.47,-0.73,1.79,1.99
8.988,-0.76,-0.84,1.56,1.93
8.998,-1.13,-0.90,1.67,2.21
9.008,-1.53,-0.65,1.86,2.50
9.018,-1.57,-0.33,1.80,2.42
9.028,-1.12,-0.08,1.30,1.72
9.038,-0.40,0.03,0.65,0.77
9.048,0.26,-0.06,-0.19,0.32
9.058,0.99,-0.25,-1.10,1.50
9.068,1.98,-0.42,-2.07,2.89
9.078,2.94,-0.73,-3.09,4.32
9.088,3.38,-1.02,-3.56,5.01
9.098,3.04,-1.06,-3.13,4.49
9.108,2.30,-0.77,-2.17,3.25
9.118,1.55,0.03,-1.26,2.00
9.128,0.71,1.04,-0.69,1.44
9.138,0.50,2.16,-0.91,2.40
9.148,1.77,3.21,-1.71,4.05
9.158,3.74,3.68,-2.53,5.83
9.168,5.24,3.59,-2.90,6.98
9.178,5.80,3.01,-2.73,7.08
9.188,5.33,1.80,-2.32,6.09
9.198,4.78,0.33,-1.79,5.12
9.208,4.04,-0.81,-1.50,4.38
9.218,2.46,-1.48,-1.48,3.23
9.228,0.97,-1.67,-1.45,2.42
9.238,0.45,-1.28,-1.30,1.88
9.248,0.54,-0.84,-1.13,1.51
9.258,0.81,-0.39,-0.94,1.30
9.268,1.23,0.05,-0.61,1.38
9.278,1.58,0.22,-0.16,1.60
9.288,1.78,0.13,0.15,1.79
9.298,1.76,-0.01,0.30,1.79
9.308,1.54,-0.05,0.25,1.56
9.318,1.19,0.04,0.04,1.19
9.328,0.87,0.20,-0.12,0.90
9.338,0.57,0.38,-0.29,0.74
9.348,0.28,0.54,-0.34,0.69
9.358,0.00,0.67,-0.26,0.71
9.368,-0.34,0.71,-0.13,0.80
9.378,-0.78,0.68,0.00,1.04
9.389,-1.16,0.60,0.16,1.31
9.398,-1.45,0.50,0.26,1.56
9.409,-1.67,0.35,0.18,1.71
9.418,-1.79,0.28,0.08,1.82
9.429,-1.81,0.25,-0.04,1.83
9.438,-1.81,0.23,-0.20,1.84
9.448,-1.84,0.28,-0.38,1.89
9.459,-1.92,0.37,-0.51,2.02
9.469,-1.94,0.44,-0.57,2.07
9.479,-1.94,0.45,-0.52,2.06
9.489,-1.94,0.40,-0.42,2.02
9.498,-1.85,0.31,-0.29,1.90
9.509,-1.73,0.22,-0.22,1.76
9.519,-1.57,0.12,-0.12,1.58
9.529,-1.38,0.00,0.15,1.39
9.539,-1.14,-0.07,0.52,1.26
9.549,-0.94,-0.10,0.87,1.28
9.559,-0.76,-0.08,1.09,1.33
9.569,-0.63,-0.08,1.20,1.36
9.579,-0.59,-0.07,1.18,1.32
9.589,-0.64,-0.08,1.11,1.28
9.599,-0.76,-0.02,1.04,1.28
9.609,-0.99,0.07,1.00,1.41
9.619,-1.23,0.12,0.98,1.58
9.629,-1.40,0.14,0.99,1.72
9.639,-1.52,0.14,1.06,1.86
9.649,-1.66,0.18,1.02,1.96
9.659,-1.83,0.23,0.85,2.03
9.669,-1.91,0.21,0.63,2.02
9.679,-1.90,0.20,0.53,1.98
9.689,-1.94,0.27,0.56,2.04
9.699,-2.06,0.37,0.68,2.20
9.709,-2.20,0.48,0.83,2.40
9.719,-2.19,0.59,0.87,2.43
9.729,-2.09,0.64,0.85,2.35
9.739,-2.00,0.64,0.90,2.28
9.749,-1.89,0.58,1.02,2.23
9.759,-1.71,0.53,1.13,2.12
9.769,-1.56,0.55,1.22,2.06
9.779,-1.38,0.62,1.31,2.00
9.789,-1.18,0.64,1.33,1.89
9.799,-1.16,0.63,1.36,1.89
9.809,-1.24,0.59,1.39,1.96
9.819,-1.23,0.62,1.41,1.97
9.829,-1.05,0.65,1.49,1.93
9.839,-0.87,0.73,1.53,1.91
9.849,-0.82,0.81,1.61,1.98
9.859,-0.81,0.90,1.54,1.96
9.869,-0.78,1.00,1.34,1.85
9.879,-0.88,1.04,1.30,1.88
9.889,-1.10,1.06,1.37,2.05
9.899,-1.22,1.02,1.44,2.15
9.909,-1.24,0.85,1.59,2.19
9.919,-0.93,0.57,1.57,1.92
9.929,-0.35,0.41,1.04,1.17
9.939,0.00,0.33,0.54,0.64
9.949,0.06,0.22,0.38,0.44
9.959,0.03,-0.15,0.43,0.45
9.969,0.40,-0.60,-0.07,0.73
9.979,1.12,-0.74,-1.28,1.85
9.989,1.91,-0.51,-2.42,3.13
9.999,2.64,-0.11,-3.25,4.19
10.009,3.17,0.33,-3.68,4.86
10.019,3.59,0.62,-3.89,5.33
10.029,3.82,0.57,-3.79,5.41
10.039,3.99,0.06,-3.16,5.09
10.049,4.11,-0.86,-2.42,4.85
10.059,4.37,-1.88,-1.82,5.09
10.069,4.90,-2.75,-1.37,5.79
10.079,5.30,-3.19,-0.98,6.27
10.089,5.29,-3.11,-0.67,6.18
10.099,4.91,-2.61,-0.57,5.59
10.109,4.35,-1.88,-0.59,4.77
10.119,3.86,-1.05,-0.63,4.05
10.129,3.57,-0.34,-0.81,3.68
10.139,3.57,0.02,-1.01,3.71
10.149,3.16,0.15,-1.10,3.34
10.159,2.55,0.17,-0.90,2.71
10.169,2.10,0.13,-0.54,2.17
10.179,1.54,0.05,-0.10,1.55
10.189,1.09,0.05,0.26,1.12
10.199,0.82,0.22,0.42,0.95
10.209,0.74,0.53,0.50,1.04
10.219,0.74,0.78,0.42,1.15
10.229,0.67,0.84,0.21,1.10
10.239,0.43,0.85,-0.04,0.95
10.249,0.09,0.79,-0.19,0.81
10.259,-0.40,0.66,-0.35,0.85
10.269,-0.92,0.45,-0.43,1.11
10.279,-1.41,0.16,-0.29,1.45
10.289,-1.85,-0.17,-0.12,1.86
10.299,-2.21,-0.46,0.02,2.25
10.309,-2.42,-0.69,0.16,2.52
10.319,-2.61,-0.82,0.17,2.74
10.329,-2.77,-0.92,0.03,2.92
10.339,-2.84,-1.04,-0.10,3.02
10.349,-2.79,-1.11,-0.22,3.01
10.359,-2.68,-1.15,-0.37,2.94
10.369,-2.65,-1.21,-0.47,2.95
10.379,-2.67,-1.25,-0.45,2.98
10.389,-2.73,-1.23,-0.34,3.01
10.399,-2.78,-1.07,-0.27,2.99
10.409,-2.75,-0.85,-0.31,2.89
10.419,-2.69,-0.68,-0.27,2.79
10.430,-2.56,-0.55,-0.20,2.63
10.439,-2.37,-0.46,-0.16,2.42
10.449,-2.18,-0.42,-0.20,2.23
10.459,-2.05,-0.39,-0.20,2.09
10.470,-1.92,-0.29,-0.04,1.94
10.479,-1.91,-0.23,0.23,1.94
10.490,-2.04,-0.19,0.50,2.11
10.499,-2.22,-0.17,0.78,2.36
10.510,-2.31,-0.18,0.92,2.49
10.519,-2.13,-0.24,0.87,2.32
10.529,-1.68,-0.30,0.70,1.84
10.539,-1.21,-0.33,0.45,1.33
10.549,-0.97,-0.31,0.26,1.05
10.559,-1.02,-0.18,0.33,1.09
10.570,-1.36,0.02,0.61,1.49
10.581,-1.89,0.21,0.97,2.14
10.592,-2.29,0.25,1.21,2.60
10.600,-2.30,0.12,1.19,2.59
10.610,-2.05,-0.10,1.08,2.32
10.619,-1.67,-0.35,1.10,2.03
10.629,-1.41,-0.56,1.16,1.91
10.639,-1.09,-0.65,1.19,1.74
10.649,-0.69,-0.60,1.20,1.51
10.659,-0.32,-0.36,1.26,1.35
10.670,0.07,-0.06,1.34,1.34
10.680,0.43,0.17,1.50,1.57
10.690,0.65,0.30,1.80,1.93
10.699,0.78,0.33,2.23,2.38
10.710,0.76,0.24,2.47,2.59
10.720,0.45,0.02,2.40,2.44
10.730,-0.02,-0.18,2.25,2.26
10.740,-0.37,-0.27,2.16,2.21
10.750,-0.55,-0.31,2.20,2.29
10.759,-0.71,-0.24,2.31,2.42
10.770,-0.85,-0.12,2.39,2.54
10.780,-1.01,-0.06,2.47,2.67
10.790,-1.13,0.02,2.54,2.77
10.800,-1.07,0.21,2.45,2.68
10.810,-0.57,0.31,1.83,1.95
10.820,0.64,0.11,0.72,0.97
10.830,2.14,-0.36,-0.39,2.21
10.840,3.09,-0.75,-0.95,3.32
10.850,3.25,-1.15,-1.19,3.65
10.860,3.73,-1.63,-2.03,4.55
10.870,5.00,-1.69,-2.60,5.88
10.880,5.27,-1.31,-2.71,6.07
10.890,3.81,-0.60,-2.72,4.72
10.900,2.42,0.31,-2.53,3.51
10.910,1.73,1.26,-2.03,2.95
10.920,1.65,2.15,-1.82,3.26
10.930,1.92,2.68,-2.10,3.91
10.940,2.57,2.76,-2.52,4.53
10.950,3.45,2.55,-2.64,5.04
10.960,4.18,1.95,-2.50,5.25
10.970,4.31,1.13,-2.18,4.96
10.980,3.49,0.20,-1.79,3.93
10.990,2.35,-0.67,-1.35,2.79
11.000,1.54,-1.36,-1.09,2.33
11.010,0.94,-1.97,-1.06,2.43
11.020,0.45,-2.31,-0.90,2.52
11.030,0.23,-2.13,-0.66,2.24
11.040,0.38,-1.57,-0.58,1.71
11.050,0.64,-0.95,-0.55,1.27
11.060,0.74,-0.41,-0.38,0.93
11.070,0.93,-0.02,-0.24,0.97
11.080,1.13,0.28,-0.23,1.19
11.090,1.22,0.51,-0.26,1.34
11.100,1.19,0.68,-0.28,1.40
11.110,0.95,0.71,-0.33,1.24
11.120,0.54,0.65,-0.33,0.90
11.130,0.12,0.53,-0.32,0.64
11.140,-0.28,0.39,-0.31,0.57
11.150,-0.66,0.22,-0.21,0.73
11.160,-0.97,0.11,-0.09,0.98
11.170,-1.20,0.03,-0.03,1.20
11.180,-1.32,0.02,0.04,1.33
11.190,-1.31,0.05,0.11,1.31
11.200,-1.26,0.05,0.12,1.27
11.210,-1.24,-0.02,0.15,1.25
11.220,-1.20,-0.05,0.09,1.21
11.230,-1.11,-0.08,-0.07,1.11
11.240,-0.99,-0.12,-0.16,1.01
11.250,-0.88,-0.19,-0.18,0.92
11.260,-0.90,-0.23,-0.10,0.93
11.270,-1.00,-0.29,-0.07,1.05
11.280,-1.15,-0.40,0.01,1.22
11.290,-1.28,-0.47,0.12,1.37
11.300,-1.42,-0.49,0.24,1.52
11.310,-1.59,-0.43,0.31,1.67
11.320,-1.66,-0.29,0.33,1.72
11.330,-1.60,-0.10,0.35,1.64
11.340,-1.40,0.08,0.39,1.45
11.350,-1.19,0.15,0.41,1.27
11.360,-1.10,0.18,0.44,1.20
11.370,-1.09,0.16,0.46,1.19
11.380,-1.14,0.12,0.51,1.25
11.390,-1.25,0.09,0.56,1.37
11.400,-1.45,0.11,0.56,1.56
11.410,-1.59,0.15,0.59,1.71
11.420,-1.62,0.24,0.73,1.79
11.430,-1.63,0.42,0.86,1.89
11.440,-1.72,0.66,0.79,2.01
11.450,-1.82,0.82,0.66,2.10
11.460,-1.85,0.75,0.56,2.07
11.470,-1.95,0.47,0.67,2.12
11.480,-2.13,0.05,0.80,2.28
11.490,-2.32,-0.34,0.91,2.51
11.500,-2.54,-0.62,1.13,2.85
11.510,-2.85,-0.71,1.25,3.20
11.520,-2.97,-0.68,1.19,3.27
11.530,-2.67,-0.55,1.04,2.91
11.540,-2.16,-0.37,0.86,2.35
11.550,-1.69,-0.16,0.68,1.83
11.560,-1.30,0.12,0.53,1.41
11.570,-1.04,0.34,0.43,1.17
11.580,-0.84,0.55,0.46,1.10
11.590,-0.56,0.73,0.70,1.16
11.600,-0.15,0.87,1.12,1.43
11.610,0.15,0.96,1.64,1.90
11.620,0.35,0.99,2.04,2.29
11.630,0.60,0.94,2.23,2.49
11.640,0.83,0.81,2.41,2.67
11.650,1.12,0.65,2.62,2.92
11.661,1.14,0.55,2.60,2.89
11.670,0.84,0.54,2.27,2.48
11.680,0.45,0.50,1.90,2.02
11.691,-0.04,0.34,1.70,1.74
11.701,-0.59,0.11,1.71,1.81
11.711,-1.09,-0.14,1.71,2.03
11.721,-1.31,-0.51,1.34,1.94
11.731,-0.94,-0.67,0.41,1.22
11.741,-0.42,-0.47,-0.66,0.92
11.751,-0.39,-0.09,-1.70,1.74
11.760,-0.53,0.12,-2.12,2.19
11.770,-0.39,0.09,-2.28,2.31
11.781,0.10,-0.08,-2.57,2.57
11.790,0.87,-0.23,-2.59,2.75
11.800,1.41,-0.29,-2.02,2.48
11.811,1.54,-0.39,-1.10,1.94
11.820,2.11,-0.56,-0.24,2.20
11.830,3.17,-0.78,0.13,3.27
11.840,4.26,-0.93,-0.33,4.38
11.851,5.12,-1.07,-1.42,5.42
11.860,5.79,-1.11,-2.47,6.39
11.871,6.41,-0.91,-3.20,7.22
11.881,6.59,-0.60,-3.54,7.51
11.891,5.84,-0.40,-3.30,6.72
11.901,4.52,-0.44,-2.71,5.29
11.911,3.19,-0.59,-1.89,3.75
11.921,2.12,-0.76,-1.12,2.51
11.931,1.13,-0.90,-0.61,1.57
11.941,0.44,-0.99,-0.37,1.14
11.951,0.36,-1.07,-0.54,1.26
11.961,0.44,-1.00,-0.88,1.40
11.971,0.64,-0.77,-1.18,1.54
11.981,0.67,-0.36,-1.21,1.43
11.991,0.51,-0.05,-1.03,1.15
12.001,0.50,0.18,-0.77,0.94
12.011,0.55,0.32,-0.54,0.83
12.021,0.41,0.31,-0.45,0.68
12.031,0.23,0.23,-0.45,0.56
12.041,0.03,0.11,-0.31,0.33
12.051,-0.15,-0.03,-0.17,0.23
12.061,-0.16,-0.08,-0.10,0.21
12.071,-0.16,-0.07,-0.14,0.22
12.081,-0.21,-0.04,-0.19,0.28
12.091,-0.34,0.04,-0.21,0.40
12.101,-0.38,0.13,-0.18,0.44
12.111,-0.27,0.17,-0.19,0.37
12.121,-0.26,0.10,-0.23,0.36
12.131,-0.38,-0.03,-0.28,0.47
12.141,-0.54,-0.21,-0.23,0.62
12.151,-0.68,-0.41,-0.14,0.81
12.161,-0.85,-0.57,0.01,1.03
12.171,-1.04,-0.61,0.13,1.21
12.181,-1.25,-0.56,0.16,1.38
12.191,-1.44,-0.51,0.11,1.53
12.201,-1.55,-0.48,0.04,1.62
12.211,-1.58,-0.45,-0.07,1.65
12.221,-1.53,-0.44,-0.16,1.60
12.231,-1.44,-0.49,-0.18,1.53
12.241,-1.36,-0.49,-0.19,1.46
12.251,-1.35,-0.43,-0.19,1.43
12.261,-1.37,-0.38,-0.22,1.44
12.271,-1.37,-0.26,-0.20,1.41
12.281,-1.38,-0.21,-0.04,1.39
12.291,-1.59,-0.21,0.20,1.61
12.301,-1.90,-0.19,0.50,1.97
12.311,-2.18,-0.16,0.68,2.29
12.321,-2.27,-0.17,0.66,2.37
12.331,-1.99,-0.23,0.60,2.09
12.341,-1.39,-0.31,0.52,1.52
12.351,-0.86,-0.38,0.52,1.07
12.361,-0.59,-0.35,0.56,0.88
12.371,-0.52,-0.25,0.67,0.88
12.381,-0.63,-0.19,0.79,1.02
12.391,-0.90,-0.17,0.85,1.25
12.401,-1.20,-0.14,0.95,1.54
12.411,-1.50,-0.18,1.11,1.87
12.421,-1.82,-0.32,1.20,2.21
12.431,-2.15,-0.60,1.20,2.53
12.441,-2.51,-0.86,1.02,2.84
12.451,-2.81,-1.09,0.85,3.13
12.461,-2.86,-1.25,0.64,3.19
12.471,-2.70,-1.33,0.39,3.04
12.481,-2.38,-1.24,0.23,2.69
12.491,-1.95,-0.97,0.26,2.19
12.501,-1.63,-0.56,0.33,1.75
12.511,-1.47,-0.01,0.35,1.51
12.521,-1.33,0.52,0.38,1.48
12.531,-0.96,0.78,0.66,1.40
12.541,-0.46,0.72,1.23,1.49
12.551,0.06,0.51,1.82,1.90
12.561,0.52,0.31,2.23,2.31
12.571,0.92,0.10,2.48,2.65
12.581,1.07,-0.01,2.71,2.91
12.591,0.95,-0.13,2.71,2.87
12.601,0.80,-0.30,2.53,2.67
12.611,0.71,-0.49,2.19,2.36
12.621,0.46,-0.68,1.71,1.90
12.631,0.11,-0.79,1.41,1.62
12.641,-0.16,-0.86,1.58,1.81
12.651,-0.31,-0.89,2.07,2.27
12.661,-0.68,-0.83,2.34,2.57
12.671,-1.06,-0.83,2.33,2.69
12.681,-1.05,-0.96,2.29,2.69
12.691,-0.85,-1.16,2.37,2.77
12.701,-0.69,-1.42,2.54,2.99
12.711,-0.58,-1.53,2.75,3.20
12.721,-0.54,-1.41,3.00,3.36
12.731,-0.57,-1.02,3.03,3.25
12.741,-0.57,-0.51,2.34,2.46
12.752,-0.45,-0.07,1.14,1.23
12.761,-0.21,0.25,0.22,0.40
12.771,-0.20,0.32,-0.79,0.87
12.781,-0.10,0.23,-1.71,1.73
12.791,0.92,0.05,-2.64,2.80
12.801,2.76,-0.20,-4.00,4.86
12.812,4.65,-0.39,-4.88,6.75
12.821,5.40,-0.48,-5.03,7.39
12.831,4.26,-0.07,-4.52,6.21
12.841,2.54,0.82,-3.65,4.52
12.851,1.43,1.85,-2.74,3.60
12.861,0.91,2.79,-2.36,3.77
12.871,1.05,3.42,-1.99,4.09
12.881,1.64,3.62,-1.36,4.20
12.891,2.44,3.31,-0.86,4.20
12.901,3.49,2.49,-0.91,4.38
12.911,4.10,1.40,-1.39,4.55
12.921,3.90,0.26,-1.94,4.37
12.931,3.27,-0.72,-2.24,4.03
12.941,2.89,-1.33,-2.20,3.87
12.952,2.50,-1.61,-1.85,3.51
12.961,1.78,-1.45,-1.30,2.64
12.972,0.84,-0.92,-0.58,1.37
12.982,0.59,-0.53,0.10,0.80
12.992,0.51,-0.52,0.43,0.85
13.002,0.55,-0.66,0.54,1.02
13.012,0.71,-0.76,0.51,1.16
13.022,0.71,-0.71,0.38,1.08
13.032,0.76,-0.56,0.17,0.96
13.042,0.77,-0.44,0.08,0.90
13.052,0.66,-0.29,0.06,0.72
13.062,0.54,-0.09,0.07,0.55
13.072,0.37,0.17,0.16,0.43
13.082,0.09,0.46,0.35,0.59
13.092,-0.15,0.79,0.53,0.96
13.102,-0.35,1.08,0.62,1.29
13.112,-0.61,1.23,0.63,1.51
13.122,-0.96,1.22,0.68,1.70
13.132,-1.42,1.00,0.65,1.85
13.142,-1.80,0.69,0.55,2.00
13.152,-1.96,0.35,0.44,2.04
13.162,-2.01,-0.02,0.32,2.04
13.172,-2.11,-0.34,0.10,2.14
13.182,-2.20,-0.56,-0.19,2.28
13.192,-2.29,-0.66,-0.45,2.42
13.202,-2.32,-0.62,-0.57,2.47
13.212,-2.30,-0.44,-0.51,2.40
13.222,-2.28,-0.18,-0.37,2.32
13.232,-2.16,0.13,-0.27,2.18
13.242,-1.89,0.30,-0.17,1.92
13.252,-1.53,0.32,0.03,1.56
13.262,-1.14,0.31,0.36,1.24
13.272,-0.89,0.28,0.72,1.18
13.282,-0.87,0.29,1.05,1.39
13.292,-1.02,0.28,1.29,1.67
13.302,-1.20,0.25,1.42,1.87
13.312,-1.42,0.16,1.36,1.97
13.322,-1.71,0.09,1.30,2.15
13.332,-2.06,0.11,1.27,2.43
13.342,-2.41,0.19,1.22,2.71
13.352,-2.70,0.31,1.17,2.96
13.362,-2.86,0.44,1.11,3.10
13.372,-2.93,0.54,1.00,3.15
13.382,-3.07,0.65,0.86,3.25
13.392,-3.16,0.70,0.68,3.31
13.402,-3.16,0.55,0.38,3.23
13.412,-2.99,0.21,0.01,3.00
13.422,-2.68,-0.13,-0.15,2.69
13.432,-2.26,-0.26,0.02,2.27
13.442,-1.74,-0.15,0.41,1.79
13.452,-1.29,0.12,0.85,1.55
13.462,-0.99,0.30,1.18,1.57
13.472,-0.70,0.31,1.38,1.58
13.482,-0.30,0.18,1.51,1.55
13.492,0.27,0.06,1.58,1.60
13.502,0.66,-0.01,1.50,1.64
13.512,0.68,-0.01,1.35,1.52
13.522,0.43,0.10,1.33,1.40
13.532,0.02,0.30,1.42,1.46
13.542,-0.54,0.47,1.55,1.71
13.552,-0.97,0.64,1.55,1.94
13.562,-1.32,0.88,1.52,2.20
13.572,-1.79,0.87,1.66,2.59
13.582,-2.15,0.44,1.85,2.87
13.592,-1.81,-0.11,1.65,2.45
13.602,-0.63,-0.53,0.65,1.05
13.612,0.68,-0.75,-0.64,1.20
13.622,2.00,-0.57,-1.57,2.61
13.632,2.99,-0.21,-1.65,3.42
13.642,3.81,0.29,-1.73,4.19
13.652,4.59,0.76,-2.00,5.06
13.662,4.80,1.13,-2.12,5.36
13.672,4.40,1.22,-2.03,5.00
13.682,3.96,0.76,-1.90,4.45
13.692,3.56,0.01,-1.62,3.91
13.702,3.23,-0.89,-1.19,3.55
13.712,3.15,-1.83,-0.85,3.74
13.722,3.30,-2.66,-0.88,4.33
13.732,3.90,-3.00,-1.29,5.08
13.742,4.87,-2.87,-1.81,5.93
13.752,5.46,-2.49,-2.07,6.34
13.762,5.15,-1.90,-1.92,5.81
13.772,4.15,-1.21,-1.57,4.60
13.782,2.75,-0.65,-1.15,3.05
13.792,1.31,-0.20,-0.74,1.52
13.802,0.31,0.03,-0.57,0.65
13.812,-0.58,0.07,-0.59,0.83
13.822,-0.97,0.08,-0.74,1.22
13.832,-0.78,0.15,-1.03,1.30
13.842,-0.41,0.30,-1.33,1.42
13.852,-0.04,0.46,-1.47,1.54
13.862,0.28,0.48,-1.53,1.62
13.872,0.50,0.31,-1.54,1.64
13.882,0.64,0.05,-1.46,1.60
13.892,0.77,-0.21,-1.37,1.59
13.902,0.81,-0.49,-1.28,1.59
13.912,0.78,-0.67,-1.04,1.46
13.922,0.78,-0.69,-0.73,1.27
13.932,0.67,-0.55,-0.48,0.99
13.942,0.43,-0.25,-0.33,0.60
13.952,0.12,0.06,-0.26,0.29
13.962,-0.17,0.26,-0.15,0.34
13.972,-0.30,0.35,-0.02,0.46
13.982,-0.43,0.36,0.03,0.57
13.992,-0.67,0.28,0.03,0.73
14.002,-0.92,0.14,0.07,0.93
14.012,-1.06,-0.04,0.12,1.07
14.022,-1.14,-0.24,0.14,1.18
14.032,-1.11,-0.47,0.12,1.21
14.042,-0.97,-0.67,0.02,1.18
14.053,-0.81,-0.74,-0.06,1.10
14.062,-0.69,-0.71,-0.11,1.00
14.073,-0.76,-0.66,-0.17,1.02
14.082,-0.91,-0.59,-0.20,1.10
14.093,-1.08,-0.51,-0.23,1.21
14.102,-1.24,-0.39,-0.18,1.31
14.113,-1.39,-0.34,-0.13,1.44
14.123,-1.51,-0.32,-0.09,1.54
14.133,-1.48,-0.35,-0.06,1.53
14.143,-1.45,-0.42,-0.01,1.51
14.153,-1.51,-0.45,0.03,1.57
14.163,-1.62,-0.32,0.05,1.66
14.173,-1.72,-0.17,0.08,1.73
14.183,-1.68,-0.09,0.16,1.69
14.193,-1.52,0.02,0.24,1.54
14.203,-1.31,0.04,0.28,1.34
14.213,-1.24,0.09,0.48,1.33
14.223,-1.31,0.14,0.89,1.59
14.233,-1.35,0.19,1.28,1.87
14.243,-1.35,0.21,1.63,2.13
14.253,-1.35,0.14,1.93,2.36
14.263,-1.54,0.03,2.09,2.59
14.273,-2.01,-0.08,1.92,2.78
14.283,-2.46,-0.19,1.55,2.91
14.293,-2.63,-0.30,1.14,2.88
14.303,-2.60,-0.39,0.90,2.78
14.313,-2.53,-0.47,0.79,2.69
14.323,-2.49,-0.47,0.84,2.67
14.333,-2.44,-0.49,0.82,2.62
14.343,-2.29,-0.50,0.73,2.46
14.353,-2.20,-0.43,0.63,2.33
14.363,-2.13,-0.31,0.55,2.22
14.373,-2.01,-0.38,0.49,2.11
14.383,-1.72,-0.54,0.57,1.90
14.393,-1.37,-0.53,0.64,1.61
14.403,-0.95,-0.44,0.73,1.27
14.413,-0.50,-0.44,0.97,1.18
14.423,-0.04,-0.43,1.35,1.42
14.433,0.43,-0.38,1.71,1.80
14.443,0.71,-0.11,1.87,2.00
14.453,0.75,0.11,2.28,2.40
14.463,0.49,-0.28,2.39,2.45
14.473,0.80,-0.44,2.01,2.20
14.483,0.79,-0.48,1.66,1.90
14.493,0.32,-0.80,1.47,1.70
14.503,-0.26,-1.02,1.17,1.57
14.513,-0.86,-1.04,0.88,1.62
14.523,-1.45,-1.00,0.70,1.90
14.533,-1.69,-0.93,0.74,2.06
14.543,-1.65,-0.98,1.09,2.21
14.553,-1.56,-1.06,1.60,2.47
14.563,-1.50,-1.06,2.12,2.80
14.573,-1.55,-1.03,2.50,3.11
14.583,-1.41,-0.80,2.93,3.34
14.593,-0.93,-0.41,2.99,3.15
14.603,-0.29,0.01,2.06,2.08
14.613,0.41,0.10,0.50,0.66
14.623,1.35,0.04,-0.60,1.48
14.633,2.57,-0.28,-1.34,2.91
14.643,4.35,-0.60,-2.47,5.04
14.653,6.27,-0.76,-3.17,7.06
14.663,7.05,-0.80,-2.98,7.70
14.673,5.86,-0.66,-2.17,6.29
14.683,4.12,-0.12,-1.26,4.31
14.693,3.32,1.01,-0.68,3.54
14.703,3.66,2.35,-1.00,4.47
14.713,4.60,3.39,-1.47,5.90
14.723,4.84,4.02,-1.55,6.48
14.733,4.40,4.01,-1.36,6.11
14.743,3.92,3.14,-1.19,5.16
14.753,3.64,1.71,-0.71,4.08
14.763,2.96,0.06,-0.25,2.97
14.773,1.70,-1.52,-0.38,2.31
14.783,0.42,-2.63,-0.79,2.78
14.793,-0.39,-3.08,-1.18,3.32
14.803,-0.67,-2.91,-1.36,3.28
14.813,-0.69,-2.37,-1.42,2.85
14.823,-0.27,-1.44,-1.36,2.00
14.833,0.69,-0.60,-1.21,1.52
14.843,1.22,0.05,-1.08,1.62
14.853,1.17,0.47,-0.90,1.55
14.863,1.12,0.73,-0.70,1.51
14.873,1.12,0.83,-0.48,1.47
14.883,0.79,0.82,-0.21,1.16
14.893,0.17,0.79,0.11,0.82
14.903,-0.65,0.77,0.48,1.11
14.913,-1.35,0.66,0.74,1.67
14.923,-1.85,0.44,0.71,2.03
14.933,-2.17,0.14,0.43,2.21
14.943,-2.22,-0.18,0.15,2.23
14.953,-2.15,-0.45,0.03,2.20
14.963,-2.05,-0.55,-0.07,2.13
14.973,-1.83,-0.52,-0.20,1.91
14.983,-1.50,-0.33,-0.40,1.59
14.993,-1.05,-0.05,-0.47,1.15
15.003,-0.71,0.27,-0.47,0.89
15.013,-0.56,0.61,-0.45,0.95
15.023,-0.56,0.89,-0.38,1.12
15.033,-0.57,1.01,-0.44,1.24
15.043,-0.55,0.98,-0.52,1.23
15.053,-0.48,0.81,-0.52,1.08
15.063,-0.47,0.56,-0.38,0.83
15.073,-0.52,0.28,-0.28,0.65
15.083,-0.55,-0.01,-0.22,0.60
15.093,-0.54,-0.23,-0.14,0.60
15.103,-0.54,-0.39,0.04,0.67
15.113,-0.73,-0.42,0.22,0.87
15.123,-1.05,-0.35,0.33,1.16
15.133,-1.32,-0.26,0.41,1.41
15.143,-1.48,-0.17,0.39,1.54
15.153,-1.50,-0.09,0.45,1.57
15.163,-1.47,-0.05,0.60,1.59
15.173,-1.55,-0.03,0.76,1.73
15.183,-1.60,-0.04,0.88,1.83
15.193,-1.55,-0.03,0.87,1.77
15.203,-1.44,-0.01,0.79,1.64
15.214,-1.39,0.08,0.73,1.57
15.223,-1.46,0.18,0.73,1.64
15.234,-1.61,0.27,0.60,1.74
15.244,-1.75,0.32,0.36,1.82
15.253,-1.89,0.28,0.14,1.92
15.263,-2.12,0.21,0.06,2.13
15.274,-2.45,0.10,0.17,2.46
15.284,-2.61,-0.00,0.34,2.63
15.294,-2.61,-0.13,0.39,2.65
15.303,-2.42,-0.17,0.35,2.45
15.314,-1.88,-0.06,0.43,1.93
15.323,-1.21,0.16,0.60,1.36
15.334,-0.53,0.36,0.82,1.04
15.344,0.01,0.51,1.00,1.12
15.354,0.30,0.65,1.01,1.24
15.364,0.22,0.72,0.95,1.22
15.374,-0.09,0.72,0.93,1.18
15.384,-0.49,0.61,1.06,1.32
15.394,-0.87,0.45,1.31,1.64
15.404,-1.10,0.32,1.58,1.95
15.414,-1.22,0.31,1.76,2.17
15.424,-1.27,0.34,1.92,2.33
15.434,-1.25,0.39,1.95,2.35
15.444,-1.11,0.39,1.87,2.21
15.454,-0.85,0.36,1.73,1.96
15.464,-0.58,0.33,1.65,1.78
15.474,-0.26,0.30,1.72,1.76
15.484,-0.01,0.38,1.77,1.81
15.494,0.07,0.51,1.85,1.92
15.504,-0.13,0.65,1.96,2.07
15.514,-0.48,0.78,2.03,2.23
15.524,-0.88,0.85,2.02,2.36
15.534,-1.15,0.70,2.08,2.48
15.544,-0.98,0.34,1.94,2.20
15.554,-0.11,0.08,0.88,0.89
15.564,0.99,-0.13,-0.35,1.06
15.574,1.95,-0.22,-0.94,2.18
15.584,2.70,-0.23,-0.92,2.86
15.594,3.32,-0.22,-0.86,3.44
15.604,3.76,-0.28,-1.16,3.94
15.614,4.03,-0.29,-1.79,4.42
15.624,3.94,-0.16,-2.38,4.60
15.634,3.23,0.01,-2.67,4.19
15.644,2.30,0.03,-2.45,3.36
15.654,1.44,-0.11,-1.87,2.36
15.664,0.75,-0.34,-1.19,1.44
15.674,0.34,-0.70,-0.64,1.01
15.684,0.09,-1.18,-0.50,1.28
15.694,0.29,-1.58,-0.78,1.79
15.704,1.48,-1.83,-1.55,2.82
15.714,2.91,-1.94,-2.22,4.14
15.724,3.83,-1.78,-2.42,4.87
15.734,4.07,-1.46,-2.29,4.89
15.744,3.81,-0.91,-2.08,4.44
15.754,3.66,-0.44,-1.90,4.14
15.764,3.16,-0.28,-1.75,3.62
15.774,2.21,-0.26,-1.37,2.62
15.784,1.19,-0.24,-0.96,1.55
15.794,0.35,-0.20,-0.54,0.67
15.804,-0.29,-0.08,-0.21,0.37
15.814,-0.54,0.04,-0.17,0.57
15.824,-0.27,0.15,-0.43,0.53
15.834,0.18,0.27,-0.81,0.87
15.844,0.53,0.34,-0.95,1.14
15.854,0.78,0.31,-0.92,1.25
15.864,0.97,0.22,-0.86,1.32
15.874,0.96,-0.02,-0.73,1.21
15.884,0.81,-0.27,-0.54,1.01
15.894,0.57,-0.43,-0.33,0.78
15.904,0.23,-0.52,-0.17,0.59
15.914,-0.10,-0.53,-0.09,0.55
15.924,-0.32,-0.42,-0.13,0.54
15.934,-0.44,-0.26,-0.19,0.54
15.944,-0.53,-0.08,-0.16,0.56
15.954,-0.59,0.09,-0.03,0.59
15.964,-0.69,0.22,0.13,0.73
15.974,-0.87,0.22,0.20,0.92
15.984,-1.00,0.10,0.24,1.04
15.994,-1.07,-0.08,0.19,1.09
16.004,-1.12,-0.33,0.21,1.19
16.014,-1.15,-0.58,0.26,1.32
16.024,-1.22,-0.72,0.20,1.43
16.034,-1.34,-0.80,0.01,1.56
16.044,-1.50,-0.86,-0.25,1.74
16.054,-1.60,-0.87,-0.54,1.90
16.064,-1.61,-0.83,-0.82,1.99
16.074,-1.55,-0.72,-0.93,1.95
16.084,-1.38,-0.53,-0.86,1.71
16.094,-1.22,-0.31,-0.73,1.45
16.104,-1.03,-0.15,-0.56,1.18
16.114,-0.83,-0.09,-0.32,0.90
16.124,-0.71,-0.06,-0.04,0.71
16.134,-0.81,-0.06,0.19,0.84
16.144,-1.07,-0.07,0.32,1.12
16.154,-1.35,-0.11,0.40,1.41
16.164,-1.58,-0.12,0.35,1.62
16.174,-1.67,-0.13,0.26,1.69
16.184,-1.59,-0.13,0.19,1.60
16.194,-1.48,-0.19,0.18,1.51
16.204,-1.46,-0.24,0.31,1.51
16.214,-1.47,-0.25,0.54,1.59
16.224,-1.52,-0.26,0.68,1.68
16.234,-1.58,-0.33,0.74,1.78
16.244,-1.59,-0.40,0.63,1.76
16.254,-1.70,-0.42,0.43,1.80
16.264,-1.90,-0.36,0.22,1.94
16.274,-2.11,-0.26,0.09,2.13
16.285,-2.07,-0.18,0.16,2.08
16.294,-1.73,-0.23,0.35,1.79
16.304,-1.34,-0.36,0.51,1.48
16.314,-0.97,-0.42,0.75,1.29
16.325,-0.58,-0.38,0.94,1.17
16.335,-0.15,-0.34,1.12,1.19
16.345,0.38,-0.34,1.41,1.50
16.354,0.90,-0.38,1.73,1.99
16.364,1.28,-0.36,1.94,2.36
16.375,1.28,-0.30,1.88,2.29
16.384,0.73,-0.16,1.51,1.69
16.394,-0.08,0.03,1.13,1.14
16.405,-0.87,0.06,0.95,1.29
16.415,-1.59,-0.07,0.84,1.80
16.425,-2.06,-0.43,0.71,2.22
16.435,-2.13,-0.83,0.62,2.37
16.445,-1.86,-1.10,0.73,2.28
16.455,-1.46,-1.15,0.93,2.08
16.465,-1.27,-1.04,1.02,1.93
16.475,-1.21,-0.89,1.09,1.85
16.485,-1.20,-0.75,1.11,1.80
16.495,-1.18,-0.65,1.14,1.77
16.505,-1.21,-0.64,1.34,1.92
16.515,-1.34,-0.71,1.73,2.30
16.525,-1.49,-0.60,2.16,2.69
16.535,-1.51,-0.37,2.34,2.81
16.545,-1.08,-0.19,2.03,2.30
16.555,-0.22,-0.18,1.40,1.43
16.565,0.65,-0.39,0.61,0.98
16.575,1.52,-0.53,-0.02,1.61
16.585,2.40,-0.56,-0.50,2.52
16.595,3.27,-0.70,-1.15,3.54
16.605,3.86,-0.91,-1.98,4.43
16.615,3.77,-1.14,-2.51,4.67
16.625,3.11,-1.17,-2.51,4.16
16.635,2.26,-0.73,-2.14,3.20
16.645,1.36,0.04,-1.64,2.13
16.655,0.69,0.99,-1.23,1.72
16.665,0.67,1.93,-1.11,2.32
16.675,1.41,2.66,-1.18,3.24
16.685,2.55,2.99,-1.36,4.15
16.695,3.93,2.85,-1.68,5.13
16.705,5.22,2.30,-1.91,6.02
16.715,5.94,1.48,-2.02,6.44
16.725,5.74,0.45,-1.87,6.05
16.735,4.82,-0.52,-1.52,5.08
16.745,3.75,-1.34,-1.13,4.14
16.755,2.27,-1.79,-0.67,2.97
16.765,0.74,-1.77,-0.12,1.92
16.775,-0.30,-1.47,0.31,1.54
16.785,-0.71,-1.08,0.48,1.37
16.795,-0.57,-0.56,0.52,0.95
16.805,-0.05,-0.07,0.44,0.45
16.815,0.51,0.28,0.23,0.63
16.825,0.90,0.40,0.02,0.98
16.835,0.96,0.33,-0.09,1.02
16.845,0.76,0.13,-0.19,0.79
16.855,0.35,-0.06,-0.20,0.41
16.865,-0.19,-0.24,-0.16,0.34
16.875,-0.78,-0.35,-0.06,0.86
16.885,-1.19,-0.30,0.03,1.23
16.895,-1.39,-0.11,0.11,1.40
16.905,-1.53,0.12,0.12,1.54
16.915,-1.64,0.35,0.11,1.68
16.925,-1.64,0.56,0.01,1.73
16.935,-1.52,0.68,-0.14,1.67
16.945,-1.31,0.70,-0.30,1.52
16.955,-1.03,0.67,-0.46,1.31
16.965,-0.84,0.60,-0.55,1.17
16.975,-0.79,0.56,-0.61,1.14
16.985,-0.83,0.50,-0.64,1.16
16.995,-0.89,0.47,-0.64,1.20
17.005,-0.97,0.46,-0.54,1.20
17.015,-1.07,0.47,-0.28,1.21
17.025,-1.25,0.49,0.04,1.34
17.035,-1.45,0.42,0.42,1.57
17.045,-1.53,0.34,0.67,1.71
17.055,-1.38,0.25,0.67,1.56
17.065,-1.15,0.10,0.62,1.31
17.075,-0.87,-0.08,0.71,1.12
17.085,-0.69,-0.21,0.80,1.08
17.095,-0.69,-0.33,0.76,1.08
17.105,-0.80,-0.39,0.62,1.09
17.115,-1.13,-0.50,0.45,1.32
17.125,-1.73,-0.59,0.34,1.86
17.135,-2.30,-0.55,0.28,2.38
17.145,-2.57,-0.31,0.16,2.59
17.155,-2.42,0.02,0.16,2.42
17.165,-2.02,0.26,0.23,2.05
17.175,-1.62,0.34,0.32,1.68
17.185,-1.36,0.36,0.26,1.43
17.195,-1.37,0.19,0.06,1.39
17.205,-1.39,-0.23,-0.05,1.41
17.215,-1.50,-0.73,0.01,1.67
17.225,-1.84,-1.04,0.25,2.13
17.235,-2.31,-0.92,0.66,2.57
17.245,-2.59,-0.45,0.96,2.79
17.255,-2.43,0.15,1.11,2.68
17.265,-2.01,0.67,1.34,2.51
17.275,-1.54,0.95,1.68,2.47
17.285,-1.05,1.10,2.08,2.58
17.295,-0.64,0.99,2.13,2.43
17.305,-0.51,0.60,1.71,1.88
17.315,-0.52,0.18,1.16,1.29
17.325,-0.64,-0.09,0.91,1.12
17.335,-1.01,-0.19,1.13,1.53
17.345,-1.46,-0.13,1.39,2.02
17.355,-1.91,0.01,1.47,2.41
17.365,-2.20,0.07,1.59,2.72
17.375,-2.21,0.00,1.65,2.75
17.385,-1.99,-0.11,1.63,2.57
17.395,-1.75,-0.30,1.53,2.34
17.405,-1.48,-0.40,1.55,2.18
17.415,-1.05,-0.19,1.69,2.00
17.425,-0.64,0.24,2.02,2.14
17.435,-0.40,0.82,2.36,2.53
17.445,-0.31,1.48,2.58,2.99
17.455,-0.31,2.11,2.63,3.39
17.465,-0.35,2.55,2.54,3.61
17.475,-0.44,2.74,2.23,3.56
17.485,-0.59,2.65,2.10,3.43
17.496,-0.67,2.16,2.59,3.43
17.505,-0.53,1.20,3.03,3.30
17.516,0.14,0.39,2.23,2.27
17.525,1.28,-0.14,0.25,1.32
17.536,2.66,-0.28,-1.11,2.90
17.545,4.20,-0.32,-1.27,4.39
17.555,5.22,-0.62,-1.07,5.37
17.565,5.66,-1.00,-1.41,5.92
17.576,5.83,-1.47,-2.24,6.42
17.585,5.53,-1.77,-2.18,6.20
17.596,4.59,-1.98,-1.15,5.13
17.606,3.56,-2.27,-0.39,4.24
17.616,3.25,-2.41,-0.67,4.10
17.626,3.99,-2.27,-1.52,4.84
17.636,4.74,-1.86,-1.60,5.34
17.646,4.52,-1.36,-1.07,4.84
17.656,3.91,-0.91,-0.58,4.06
17.666,3.52,-0.51,-0.44,3.58
17.676,3.07,-0.26,-0.54,3.12
17.686,2.38,-0.09,-0.90,2.55
17.696,1.54,0.17,-1.46,2.12
17.706,0.76,0.57,-1.84,2.07
17.716,0.08,0.99,-1.83,2.08
17.726,-0.68,1.23,-1.91,2.37
17.736,-0.65,1.30,-2.05,2.51
17.746,0.23,0.90,-2.53,2.69
17.756,0.67,0.15,-2.88,2.96
17.766,0.51,-0.70,-2.60,2.74
17.776,0.37,-1.28,-1.82,2.26
17.786,0.23,-1.57,-1.13,1.95
17.796,0.19,-1.63,-0.64,1.76
17.806,0.22,-1.46,-0.41,1.53
17.816,0.08,-1.09,-0.19,1.11
17.826,-0.15,-0.67,0.05,0.68
17.836,-0.27,-0.29,0.24,0.47
17.846,-0.21,0.04,0.28,0.36
17.856,-0.00,0.34,0.27,0.43
17.866,0.20,0.65,0.22,0.72
17.876,0.26,0.82,0.17,0.87
17.886,0.31,0.84,0.11,0.91
17.896,0.50,0.83,-0.04,0.96
17.906,0.69,0.74,-0.19,1.03
17.916,0.72,0.56,-0.22,0.94
17.926,0.63,0.26,-0.20,0.71
17.936,0.49,-0.02,-0.35,0.60
17.946,0.31,-0.21,-0.43,0.57
17.956,-0.02,-0.27,-0.24,0.37
17.966,-0.45,-0.24,-0.06,0.52
17.976,-0.93,-0.19,0.01,0.95
17.986,-1.36,-0.21,0.00,1.38
17.996,-1.74,-0.31,-0.04,1.77
18.006,-1.99,-0.47,-0.11,2.05
18.016,-2.10,-0.64,-0.18,2.20
18.026,-2.14,-0.75,-0.32,2.29
18.036,-2.17,-0.70,-0.48,2.33
18.046,-2.16,-0.50,-0.61,2.30
18.056,-2.19,-0.20,-0.62,2.28
18.066,-2.16,0.08,-0.59,2.24
18.076,-2.08,0.23,-0.49,2.15
18.086,-1.92,0.26,-0.35,1.97
18.096,-1.83,0.18,-0.31,1.87
18.106,-1.68,-0.00,-0.29,1.70
18.116,-1.52,-0.16,-0.22,1.54
18.126,-1.33,-0.31,-0.14,1.38
18.136,-1.08,-0.47,-0.23,1.20
18.146,-0.70,-0.61,-0.39,1.01
18.156,-0.31,-0.74,-0.32,0.86
18.166,-0.06,-0.78,0.00,0.78
18.176,-0.10,-0.74,0.29,0.81
18.186,-0.40,-0.64,0.48,0.89
18.196,-0.83,-0.49,0.68,1.18
18.206,-1.26,-0.31,1.02,1.65
18.216,-1.75,-0.14,1.26,2.16
18.226,-2.30,-0.04,1.24,2.62
18.236,-2.64,-0.03,1.22,2.91
18.246,-2.69,-0.10,1.27,2.97
18.256,-2.58,-0.18,1.24,2.87
18.266,-2.37,-0.28,1.17,2.66
18.276,-2.10,-0.29,1.04,2.36
18.286,-1.68,-0.32,0.95,1.96
18.296,-1.32,-0.41,0.97,1.69
18.306,-1.19,-0.42,0.94,1.57
18.316,-1.17,-0.27,0.62,1.35
18.326,-1.03,-0.08,0.28,1.07
18.336,-0.64,-0.08,0.31,0.72
18.346,-0.26,-0.18,0.44,0.54
18.356,-0.04,-0.17,0.52,0.55
18.366,0.02,-0.13,0.59,0.61
18.376,-0.19,-0.09,0.64,0.67
18.386,-0.55,-0.07,0.67,0.87
18.396,-0.89,-0.12,0.77,1.18
18.406,-1.03,-0.16,0.67,1.24
18.416,-1.00,-0.13,0.40,1.08
18.426,-0.92,-0.18,0.25,0.97
18.436,-0.89,-0.30,0.35,1.01
18.446,-0.89,-0.51,0.74,1.26
18.456,-0.93,-0.66,1.27,1.70
18.466,-0.98,-0.64,1.74,2.09
18.476,-1.06,-0.56,2.09,2.41
18.486,-0.81,-0.50,2.53,2.71
18.496,-0.28,-0.45,3.04,3.08
18.506,0.13,-0.32,3.28,3.30
18.516,0.25,-0.25,3.18,3.20
18.526,0.31,-0.22,2.88,2.90
18.536,0.43,-0.23,2.51,2.56
18.546,0.47,-0.22,2.06,2.13
18.556,0.35,-0.17,1.80,1.84
18.566,0.08,-0.16,1.78,1.79
18.576,-0.30,-0.20,1.75,1.79
18.586,-0.78,-0.24,1.69,1.88
18.596,-1.21,-0.19,1.71,2.11
18.606,-1.46,-0.06,1.64,2.19
18.616,-1.18,0.07,1.15,1.65
18.626,-0.37,0.07,0.17,0.41
18.636,0.50,-0.33,-0.99,1.15
18.647,1.49,-0.79,-1.28,2.12
18.657,2.48,-1.33,-1.13,3.03
18.666,3.38,-1.95,-1.44,4.16
18.677,3.92,-2.17,-1.12,4.62
18.686,3.33,-1.98,-0.13,3.88
18.697,1.93,-1.26,0.26,2.32
18.706,0.40,-0.04,0.07,0.41
18.717,-0.49,1.46,-0.76,1.72
18.727,0.58,2.90,-2.00,3.57
18.737,3.27,3.57,-2.87,5.63
18.747,6.45,3.79,-3.16,8.13
18.756,8.41,3.72,-3.15,9.72
18.767,8.28,3.01,-3.20,9.37
18.777,7.24,1.65,-2.87,7.96
18.787,5.91,0.06,-2.35,6.36
18.797,3.84,-1.32,-1.93,4.49
18.807,1.49,-2.01,-1.59,2.96
18.817,-0.39,-1.94,-1.33,2.38
18.827,-1.49,-1.58,-1.08,2.43
18.837,-1.73,-1.20,-0.79,2.25
18.847,-1.44,-0.87,-0.32,1.71
18.857,-1.19,-0.58,0.10,1.33
18.867,-0.46,-0.23,0.58,0.78
18.877,0.73,-0.28,0.62,1.00
18.887,1.30,-0.44,0.32,1.41
18.897,1.43,-0.37,-0.07,1.48
18.907,1.22,-0.09,-0.35,1.28
18.917,0.62,0.11,-0.44,0.77
18.927,-0.06,0.12,-0.39,0.41
18.937,-0.77,0.10,-0.38,0.86
18.947,-1.39,0.14,-0.40,1.45
18.957,-1.78,0.15,-0.41,1.83
18.967,-2.06,0.04,-0.39,2.09
18.977,-2.25,-0.07,-0.41,2.29
18.987,-2.21,-0.12,-0.55,2.28
18.997,-2.07,-0.06,-0.64,2.17
19.007,-2.00,0.06,-0.58,2.09
19.017,-2.02,0.22,-0.56,2.11
19.027,-2.07,0.52,-0.49,2.19
19.037,-2.01,0.84,-0.47,2.22
19.047,-1.85,1.05,-0.53,2.19
19.057,-1.64,1.06,-0.53,2.02
19.067,-1.43,0.93,-0.52,1.79
19.077,-1.28,0.74,-0.55,1.58
19.087,-1.16,0.59,-0.61,1.44
19.097,-1.09,0.46,-0.60,1.32
19.107,-1.03,0.37,-0.51,1.21
19.117,-1.05,0.25,-0.30,1.12
19.127,-1.13,0.12,-0.00,1.14
19.137,-1.25,-0.02,0.19,1.27
19.147,-1.29,-0.14,0.23,1.32
19.157,-1.20,-0.29,0.26,1.26
19.167,-1.00,-0.45,0.33,1.15
19.177,-0.71,-0.45,0.55,1.01
19.187,-0.43,-0.37,0.87,1.04
19.197,-0.24,-0.19,1.09,1.13
19.207,-0.21,-0.00,1.25,1.26
19.217,-0.39,0.14,1.32,1.38
19.227,-0.89,0.17,1.30,1.59
19.237,-1.60,0.16,1.12,1.96
19.247,-2.30,0.10,0.97,2.50
19.257,-2.83,0.03,0.80,2.94
19.267,-3.04,-0.00,0.57,3.09
19.277,-3.01,-0.04,0.33,3.02
19.287,-2.64,0.03,0.19,2.65
19.297,-2.05,0.13,0.10,2.05
19.307,-1.43,0.21,0.19,1.45
19.317,-0.95,0.15,0.46,1.07
19.327,-0.72,0.10,0.85,1.12
19.337,-0.58,0.14,1.21,1.35
19.347,-0.39,0.21,1.41,1.48
19.357,-0.19,0.30,1.51,1.56
19.367,0.03,0.34,1.66,1.70
19.377,0.18,0.37,1.87,1.91
19.387,0.17,0.80,1.97,2.14
19.397,0.11,1.28,2.46,2.77
19.407,-0.35,0.02,2.15,2.18
19.417,0.24,0.63,0.97,1.18
19.427,0.31,0.62,0.74,1.02
19.437,-0.02,0.84,0.59,1.03
19.447,-0.11,1.54,0.85,1.77
19.457,-0.47,1.51,1.52,2.19
19.467,-1.03,1.01,1.35,1.98
19.477,-0.60,1.28,1.18,1.84
19.487,-1.10,0.57,1.49,1.94
19.497,-1.61,-0.01,1.63,2.29
19.507,-2.06,-0.38,1.80,2.76
19.517,-2.15,-0.85,1.81,2.93
19.527,-1.44,-1.21,1.23,2.25
19.537,-0.38,-1.31,0.21,1.38
19.547,0.25,-1.10,-0.73,1.34
19.557,0.74,-0.75,-1.00,1.45
19.567,1.43,-0.48,-1.24,1.96
19.577,2.49,-0.19,-2.17,3.31
19.587,3.69,0.24,-3.25,4.92
19.597,4.54,0.78,-3.58,5.83
19.607,4.49,1.09,-3.03,5.53
19.617,3.64,0.95,-2.16,4.34
19.627,2.76,0.46,-1.12,3.01
19.637,2.15,-0.21,-0.11,2.16
19.647,1.50,-1.01,0.47,1.87
19.657,0.81,-1.86,0.45,2.07
19.667,0.43,-2.45,-0.08,2.49
19.677,0.91,-2.58,-1.05,2.93
19.687,2.25,-2.23,-1.88,3.68
19.697,3.62,-1.58,-2.22,4.53
19.707,4.48,-0.63,-2.18,5.02
19.717,4.92,0.44,-2.07,5.36
19.727,4.76,1.23,-2.06,5.33
19.737,3.84,1.42,-1.83,4.48
19.747,2.45,0.97,-1.37,2.97
19.757,1.20,0.29,-0.88,1.52
19.767,0.51,-0.37,-0.40,0.74
19.777,0.42,-1.04,-0.21,1.15
19.787,0.43,-1.43,-0.36,1.54
19.798,0.37,-1.25,-0.44,1.37
19.807,0.27,-0.79,-0.32,0.89
19.818,0.25,-0.33,-0.27,0.49
19.827,0.45,0.05,-0.27,0.53
19.838,0.61,0.21,-0.33,0.73
19.847,0.52,0.17,-0.44,0.70
19.857,0.28,0.06,-0.54,0.61
19.868,0.04,-0.05,-0.62,0.63
19.878,-0.36,-0.15,-0.63,0.74
19.887,-0.81,-0.15,-0.56,1.00
19.898,-1.13,-0.09,-0.39,1.20
19.908,-1.34,-0.03,-0.14,1.34
19.918,-1.46,0.06,0.12,1.47
19.928,-1.61,0.11,0.29,1.64
19.938,-1.76,0.12,0.28,1.79
19.948,-1.76,0.15,0.15,1.77
19.958,-1.62,0.08,-0.04,1.62
19.967,-1.48,-0.14,-0.18,1.50
19.978,-1.31,-0.41,-0.36,1.42
19.987,-1.15,-0.67,-0.56,1.44
19.998,-0.99,-0.86,-0.70,1.49
20.008,-0.78,-1.02,-0.63,1.43
20.018,-0.66,-1.06,-0.41,1.32
20.028,-0.66,-0.97,-0.17,1.18
20.038,-0.75,-0.82,0.01,1.11
20.048,-0.77,-0.66,0.16,1.03
20.058,-0.76,-0.52,0.28,0.96
20.068,-0.74,-0.44,0.23,0.89
20.078,-0.70,-0.37,0.11,0.80
20.088,-0.65,-0.31,-0.07,0.72
20.098,-0.71,-0.24,-0.12,0.76
20.108,-0.77,-0.18,-0.08,0.80
20.118,-0.61,-0.24,0.07,0.66
20.128,-0.48,-0.30,0.38,0.68
20.138,-0.46,-0.37,0.66,0.88
20.148,-0.54,-0.31,0.88,1.08
20.158,-0.58,-0.17,1.10,1.25
20.168,-0.70,-0.04,1.17,1.37
20.178,-0.92,0.06,1.03,1.38
20.188,-1.06,0.13,0.83,1.35
20.198,-1.23,0.12,0.71,1.42
20.208,-1.47,0.03,0.59,1.58
20.218,-1.73,-0.12,0.47,1.80
20.228,-1.81,-0.35,0.34,1.87
20.238,-1.50,-0.60,0.08,1.62
20.248,-1.00,-0.84,-0.23,1.33
20.258,-0.53,-0.93,-0.39,1.14
20.268,-0.23,-0.90,-0.31,0.98
20.278,-0.32,-0.75,-0.08,0.82
20.288,-0.75,-0.54,0.26,0.96
20.298,-1.31,-0.37,0.74,1.55
20.308,-1.76,-0.30,1.18,2.14
20.318,-2.08,-0.32,1.45,2.55
20.328,-2.27,-0.36,1.43,2.71
20.338,-2.40,-0.39,1.29,2.75
20.348,-2.49,-0.44,1.07,2.75
20.358,-2.57,-0.39,0.89,2.75
20.368,-2.60,-0.26,0.92,2.77
20.378,-2.62,-0.03,1.08,2.83
20.388,-2.58,0.16,1.25,2.87
20.398,-2.42,0.30,1.44,2.83
20.408,-2.15,0.36,1.58,2.69
20.418,-1.90,0.20,1.64,2.52
20.428,-1.65,-0.13,1.57,2.28
20.438,-1.44,-0.29,1.56,2.14
20.448,-1.27,-0.41,1.61,2.10
20.458,-1.58,-0.54,1.70,2.39
20.468,-2.18,-0.52,1.82,2.89
20.478,-2.65,-0.56,1.76,3.23
20.488,-2.85,-0.68,1.45,3.26
20.498,-3.04,-0.72,1.12,3.32
20.508,-2.99,-0.55,0.92,3.18
20.518,-2.60,-0.27,0.36,2.64
20.528,-1.73,-0.07,-0.64,1.85
20.538,-0.46,-0.03,-1.36,1.43
20.548,0.87,-0.11,-1.84,2.04
20.558,2.28,-0.10,-2.20,3.17
20.568,3.79,-0.40,-2.71,4.68
20.578,5.46,-0.93,-2.91,6.25
20.588,6.50,-1.24,-2.52,7.08
20.598,5.74,-1.41,-2.22,6.32
20.608,4.28,-1.29,-1.90,4.85
20.618,3.40,-0.78,-1.70,3.88
20.628,2.70,-0.18,-1.97,3.35
20.638,3.66,-0.02,-2.66,4.53
20.648,6.40,0.14,-3.25,7.18
20.658,7.53,1.35,-2.55,8.07
20.668,7.26,2.73,-2.00,8.01
20.678,8.28,1.65,-2.39,8.77
20.688,9.41,0.23,-2.92,9.85
20.698,8.12,1.05,-2.34,8.51
20.708,5.60,2.24,-1.27,6.16
20.718,3.14,2.42,-0.07,3.96
20.728,1.70,1.58,0.73,2.43
20.738,0.72,0.92,1.03,1.56
20.748,0.06,-0.13,0.97,0.98
20.758,-0.15,-1.05,0.69,1.27
20.768,-0.20,-1.42,0.40,1.49
20.778,0.07,-1.50,0.07,1.51
20.788,0.83,-1.62,-0.37,1.85
20.798,1.17,-1.60,-0.84,2.16
20.808,1.39,-1.40,-1.07,2.25
20.818,1.12,-0.49,-1.04,1.60
20.828,0.34,0.49,-1.11,1.26
20.838,-0.25,1.11,-1.24,1.68
20.848,-0.78,1.35,-1.14,1.93
20.858,-1.58,1.29,-0.98,2.26
20.868,-2.26,1.12,-1.01,2.72
20.878,-2.53,1.09,-0.82,2.87
20.888,-2.46,1.25,-0.51,2.80
20.898,-2.78,1.29,-0.39,3.09
20.908,-3.00,1.31,-0.45,3.31
20.918,-2.92,0.97,-0.66,3.15
20.928,-2.18,1.23,-0.93,2.67
20.938,-1.57,1.11,-1.00,2.17
20.948,-0.82,0.78,-0.95,1.48
20.958,-0.42,0.19,-0.95,1.05
20.968,-0.44,-0.47,-1.19,1.35
20.979,-0.22,-0.51,-1.18,1.31
20.989,0.16,0.20,-0.89,0.93
20.999,-0.29,0.69,-0.30,0.81
21.009,-0.41,1.31,0.08,1.37
21.019,-0.26,1.87,0.34,1.92
21.029,-0.11,2.52,-0.35,2.55
21.039,-0.58,-0.79,-1.02,1.42
21.048,-0.43,-1.53,-0.75,1.75
21.059,-0.44,-1.82,-0.63,1.97
21.068,-0.03,-1.08,-0.73,1.30
21.079,0.37,-0.07,-0.73,0.82
21.089,0.40,0.16,-0.75,0.86
21.099,0.06,0.18,-0.49,0.53
21.108,-0.06,0.27,0.20,0.34
21.119,0.37,0.79,0.67,1.11
21.129,1.04,1.54,0.49,1.92
21.139,0.75,1.02,-0.13,1.27
21.148,0.22,0.44,-0.51,0.71
21.159,0.02,0.47,-0.27,0.54
21.169,0.16,1.03,0.13,1.05
21.179,-0.30,0.71,0.41,0.87
21.189,-0.28,0.19,0.30,0.45
21.199,-0.11,0.22,0.11,0.26
21.209,0.09,0.10,-0.13,0.18
21.219,0.27,-0.26,-0.13,0.39
21.229,-0.16,-1.18,-0.05,1.20
21.239,1.63,-0.51,0.04,1.71
21.249,-0.26,1.50,0.04,1.53
21.259,-1.71,1.44,-0.37,2.27
21.269,-1.67,1.92,-0.20,2.55
21.279,-1.66,2.32,-0.04,2.86
21.289,-1.65,2.30,-0.25,2.84
21.299,-1.66,1.98,-0.57,2.65
21.309,-0.97,1.63,-0.55,1.97
21.319,-0.25,1.30,-0.43,1.39
21.329,0.21,1.14,-0.45,1.24
21.339,0.04,1.08,-0.49,1.19
21.349,-0.59,0.91,-0.49,1.19
21.359,-1.14,0.54,-0.34,1.31
21.369,-1.57,0.58,-0.16,1.69
21.379,-1.50,0.77,-0.17,1.70
21.389,-0.63,1.22,-0.01,1.37
21.399,0.04,1.70,0.24,1.72
21.409,0.24,1.97,0.59,2.07
21.419,0.25,2.35,0.56,2.43
21.429,0.16,2.33,0.65,2.43
21.439,0.15,1.90,0.37,1.94
21.449,0.09,1.62,-0.03,1.62
21.459,-0.33,0.85,-0.01,0.91
21.469,0.37,0.47,-0.40,0.72
21.479,0.75,0.35,-0.56,1.00
21.489,0.67,0.28,-0.10,0.74
21.499,1.36,0.36,-0.47,1.48
21.509,2.73,0.41,-1.90,3.35
21.519,2.53,-0.76,-2.66,3.75
21.529,1.42,-0.96,-2.40,2.95
21.539,0.34,-0.96,-1.90,2.16
21.549,0.37,-0.87,-1.08,1.44
21.559,0.40,-0.67,-0.04,0.78
21.569,0.28,-0.45,0.66,0.85
21.579,-0.30,-0.42,0.63,0.82
21.589,-0.81,-0.27,0.24,0.89
21.599,-1.08,-0.06,-0.11,1.09
21.609,-0.93,-0.04,-0.26,0.97
21.619,-0.66,-0.08,-0.37,0.76
21.629,-0.60,-0.24,-0.58,0.87
21.639,-0.56,-0.24,-0.69,0.92
21.649,-0.63,-0.36,-0.91,1.16
21.659,-0.76,-0.61,-1.13,1.49
21.669,-0.83,-0.87,-1.28,1.76
21.679,-0.77,-1.08,-1.30,1.86
21.689,-0.70,-1.14,-1.19,1.79
21.699,-0.85,-1.18,-1.13,1.84
21.709,-1.05,-1.21,-1.10,1.95
21.719,-1.06,-1.16,-0.97,1.85
21.729,-0.90,-1.08,-0.79,1.61
21.739,-0.63,-0.96,-0.66,1.33
21.749,-0.32,-0.85,-0.60,1.09
21.759,0.06,-0.76,-0.46,0.89
21.769,0.51,-0.77,-0.38,1.00
21.779,0.85,-0.85,-0.38,1.26
21.789,0.97,-0.88,-0.41,1.37
21.799,1.00,-0.87,-0.36,1.38
21.809,1.03,-0.89,-0.29,1.39
21.819,1.02,-0.84,-0.34,1.36
21.829,0.74,-0.87,-0.31,1.18
21.839,0.52,-0.91,-0.28,1.08
21.849,0.21,-0.93,-0.27,0.99
21.859,-0.07,-0.97,-0.24,1.00
21.869,-0.30,-0.98,-0.14,1.03
21.879,-0.36,-1.06,-0.08,1.13
21.889,-0.53,-1.05,0.11,1.18
21.899,-0.91,-0.90,0.50,1.38
21.909,-1.07,-0.84,0.62,1.50
21.919,-0.96,-0.76,0.57,1.35
21.929,-0.74,-0.78,0.40,1.15
21.939,-0.40,-0.85,0.20,0.96
21.949,-0.16,-0.93,0.04,0.94
21.959,0.08,-1.06,-0.04,1.06
21.969,0.11,-0.82,-0.11,0.84
