time,ax,ay,az,atotal
0.000,-0.01,0.07,0.04,0.08
0.010,-0.11,0.15,0.01,0.19
0.020,-0.20,0.09,0.01,0.22
0.030,-0.19,-0.00,-0.00,0.19
0.040,-0.11,-0.11,0.01,0.16
0.050,-0.04,-0.18,0.04,0.19
0.060,0.04,-0.25,-0.02,0.25
0.070,0.03,-0.27,-0.02,0.27
0.080,0.01,-0.26,-0.01,0.26
0.090,-0.01,-0.21,-0.03,0.22
0.100,-0.06,-0.15,-0.05,0.17
0.110,-0.11,-0.08,-0.07,0.15
0.120,-0.15,-0.02,-0.05,0.16
0.130,-0.23,0.06,-0.06,0.24
0.140,-0.19,0.05,-0.06,0.21
0.150,-0.05,-0.03,-0.09,0.11
0.160,-0.03,-0.09,-0.12,0.15
0.170,-0.09,-0.12,-0.12,0.19
0.180,-0.03,-0.13,-0.10,0.16
0.190,0.03,-0.13,-0.12,0.18
0.200,0.04,-0.16,-0.11,0.20
0.210,-0.00,-0.19,-0.11,0.22
0.220,-0.10,-0.17,-0.10,0.22
0.230,-0.13,-0.14,-0.08,0.20
0.240,-0.18,-0.06,-0.08,0.20
0.250,-0.15,-0.04,-0.05,0.16
0.260,-0.15,-0.04,-0.06,0.16
0.270,-0.16,-0.05,-0.06,0.18
0.280,-0.15,-0.03,-0.06,0.17
0.290,-0.13,-0.07,-0.05,0.16
0.300,-0.07,-0.15,-0.05,0.17
0.310,-0.07,-0.20,-0.04,0.21
0.320,-0.09,-0.19,0.01,0.21
0.330,-0.14,-0.21,0.01,0.25
0.340,-0.09,-0.19,0.01,0.21
0.350,-0.02,-0.20,0.04,0.20
0.360,-0.01,-0.28,0.10,0.30
0.371,-0.10,-0.29,0.05,0.31
0.380,-0.09,-0.27,0.04,0.29
0.391,-0.03,-0.22,-0.01,0.22
0.401,-0.04,-0.20,-0.02,0.20
0.411,-0.09,-0.21,-0.01,0.23
0.420,-0.10,-0.21,-0.01,0.23
0.431,-0.07,-0.22,0.01,0.24
0.440,-0.09,-0.24,0.03,0.26
0.451,-0.06,-0.23,0.01,0.24
0.461,-0.07,-0.22,-0.03,0.24
0.471,-0.14,-0.19,-0.07,0.25
0.481,-0.18,-0.20,-0.10,0.29
0.491,-0.23,-0.16,-0.16,0.32
0.501,-0.29,-0.11,-0.22,0.38
0.511,-0.31,-0.04,-0.29,0.43
0.521,-0.23,0.00,-0.32,0.40
0.531,-0.10,0.06,-0.36,0.38
0.541,-0.05,0.16,-0.39,0.42
0.551,-0.05,0.31,-0.42,0.53
0.561,-0.06,0.38,-0.45,0.59
0.571,-0.08,0.44,-0.47,0.65
0.581,-0.09,0.47,-0.48,0.67
0.591,-0.02,0.43,-0.50,0.66
0.601,0.05,0.40,-0.53,0.67
0.611,0.08,0.41,-0.58,0.72
0.621,0.08,0.47,-0.64,0.80
0.631,0.06,0.53,-0.64,0.84
0.641,0.08,0.60,-0.58,0.84
0.651,0.08,0.62,-0.43,0.75
0.661,0.02,0.62,-0.28,0.68
0.671,-0.06,0.65,-0.19,0.67
0.681,-0.16,0.74,-0.06,0.76
0.691,-0.40,0.81,0.25,0.94
0.701,-0.69,0.75,0.47,1.12
0.711,-0.83,0.50,0.68,1.18
0.721,-0.90,0.13,0.88,1.26
0.731,-0.89,-0.28,1.07,1.42
0.741,-0.83,-0.67,1.25,1.65
0.751,-0.66,-1.00,1.36,1.81
0.761,-0.25,-1.22,1.44,1.90
0.771,0.24,-1.39,1.45,2.02
0.781,0.68,-1.41,1.37,2.08
0.791,1.02,-1.25,1.25,2.04
0.801,1.08,-1.00,1.13,1.85
0.811,0.86,-0.76,1.04,1.54
0.821,0.43,-0.50,0.97,1.17
0.831,-0.08,-0.29,0.94,0.99
0.841,-0.48,-0.23,0.91,1.06
0.851,-0.75,-0.27,0.90,1.20
0.861,-0.91,-0.38,0.83,1.28
0.871,-0.86,-0.55,0.75,1.27
0.881,-0.64,-0.62,0.76,1.17
0.891,-0.38,-0.57,0.76,1.02
0.901,-0.22,-0.42,0.83,0.96
0.911,-0.22,-0.30,0.90,0.97
0.921,-0.31,-0.26,1.01,1.09
0.931,-0.39,-0.34,1.01,1.13
0.941,-0.46,-0.41,0.96,1.14
0.951,-0.52,-0.49,0.88,1.14
0.961,-0.49,-0.54,0.83,1.11
0.971,-0.47,-0.56,0.79,1.07
0.981,-0.49,-0.57,0.78,1.08
0.991,-0.50,-0.56,0.81,1.10
1.001,-0.50,-0.58,0.86,1.15
1.011,-0.51,-0.54,0.91,1.18
1.021,-0.49,-0.50,0.90,1.14
1.031,-0.48,-0.41,0.87,1.07
1.041,-0.45,-0.32,0.90,1.05
1.051,-0.44,-0.32,0.93,1.08
1.061,-0.37,-0.33,0.92,1.04
1.071,-0.37,-0.66,0.98,1.24
1.081,-0.32,-0.68,0.88,1.15
1.091,-0.37,-0.51,0.86,1.07
1.101,-0.45,-0.66,0.95,1.24
1.111,-0.49,-0.72,1.00,1.33
1.121,-0.49,-0.65,1.04,1.32
1.131,-0.55,-0.66,1.09,1.39
1.141,-0.54,-0.67,1.12,1.41
1.151,-0.49,-0.51,1.11,1.31
1.161,-0.49,-0.32,1.09,1.24
1.171,-0.51,-0.24,1.07,1.21
1.181,-0.53,-0.23,1.07,1.22
1.191,-0.57,-0.23,1.11,1.26
1.201,-0.59,-0.26,1.20,1.36
1.211,-0.54,-0.35,1.26,1.42
1.221,-0.66,-0.42,1.35,1.56
1.231,-0.64,-0.38,1.47,1.65
1.241,-0.58,-0.45,1.48,1.65
1.251,-0.52,-0.49,1.44,1.60
1.261,-0.57,-0.50,1.46,1.64
1.271,-0.49,-0.51,1.31,1.49
1.281,-0.33,-0.33,0.99,1.09
1.291,-0.19,0.05,0.61,0.64
1.301,0.06,0.54,0.30,0.62
1.311,0.44,0.99,0.09,1.08
1.321,0.94,1.33,-0.07,1.63
1.331,1.37,1.55,-0.06,2.07
1.341,1.75,1.49,0.11,2.31
1.351,1.90,1.10,0.50,2.25
1.361,1.82,0.43,0.94,2.10
1.371,1.81,-0.25,1.34,2.27
1.381,1.81,-0.90,1.59,2.57
1.391,1.81,-1.40,1.63,2.81
1.401,1.67,-1.39,1.66,2.74
1.411,1.28,-0.92,1.62,2.25
1.421,0.93,-0.29,1.48,1.77
1.432,0.75,0.30,1.22,1.46
1.441,0.76,0.93,0.87,1.49
1.452,0.87,1.33,0.48,1.66
1.462,0.85,1.46,0.05,1.69
1.472,0.59,1.52,-0.44,1.69
1.482,0.24,1.55,-0.87,1.79
1.492,0.04,1.62,-1.29,2.07
1.501,-0.15,1.63,-1.72,2.37
1.512,-0.34,1.48,-2.11,2.60
1.521,-0.50,1.13,-2.43,2.72
1.532,-0.50,0.83,-2.56,2.74
1.541,-0.34,0.72,-2.53,2.66
1.552,-0.18,0.72,-2.46,2.57
1.562,0.07,0.78,-2.32,2.45
1.572,0.20,0.92,-2.14,2.34
1.582,0.26,1.07,-1.93,2.23
1.592,0.23,1.09,-1.72,2.05
1.602,0.14,0.94,-1.53,1.80
1.612,0.04,0.79,-1.29,1.51
1.622,-0.14,0.47,-1.09,1.20
1.631,-0.27,0.12,-0.94,0.99
1.641,-0.32,-0.25,-0.90,0.98
1.652,-0.30,-0.60,-0.85,1.08
1.661,-0.32,-0.86,-0.78,1.20
1.672,-0.37,-1.01,-0.69,1.28
1.683,-0.53,-0.90,-0.73,1.27
1.692,-0.71,-0.59,-0.72,1.17
1.702,-0.96,-0.17,-0.68,1.18
1.712,-1.15,0.19,-0.69,1.36
1.722,-1.23,0.40,-0.71,1.48
1.732,-1.17,0.42,-0.64,1.40
1.742,-1.07,0.25,-0.56,1.23
1.752,-1.01,0.02,-0.44,1.10
1.762,-0.97,-0.23,-0.30,1.04
1.772,-0.85,-0.44,-0.10,0.96
1.782,-0.70,-0.61,0.06,0.93
1.792,-0.58,-0.75,0.13,0.96
1.802,-0.42,-0.87,0.10,0.97
1.812,-0.32,-0.92,0.06,0.97
1.822,-0.33,-0.90,0.01,0.96
1.832,-0.42,-0.76,-0.01,0.87
1.842,-0.51,-0.63,-0.01,0.81
1.852,-0.58,-0.45,-0.03,0.73
1.862,-0.56,-0.30,0.03,0.63
1.872,-0.52,-0.27,0.09,0.59
1.882,-0.46,-0.31,0.23,0.61
1.892,-0.47,-0.38,0.39,0.71
1.902,-0.44,-0.49,0.47,0.81
1.912,-0.41,-0.60,0.53,0.89
1.922,-0.43,-0.73,0.58,1.03
1.932,-0.38,-0.96,0.60,1.19
1.942,-0.33,-1.23,0.63,1.42
1.952,-0.28,-1.40,0.71,1.60
1.962,-0.19,-1.52,0.71,1.69
1.972,-0.01,-1.56,0.76,1.73
1.982,0.10,-1.45,0.86,1.69
1.992,0.04,-1.17,0.90,1.48
2.002,-0.16,-0.77,0.91,1.21
2.012,-0.36,-0.39,0.91,1.05
2.022,-0.46,-0.03,0.88,0.99
2.032,-0.33,0.27,0.81,0.92
2.042,-0.06,0.51,0.81,0.96
2.052,0.31,0.72,0.84,1.15
2.062,0.63,0.74,0.84,1.28
2.072,0.79,0.61,0.73,1.24
2.082,0.97,0.42,0.58,1.21
2.092,1.16,0.23,0.48,1.28
2.102,1.38,0.05,0.53,1.47
2.112,1.57,-0.11,0.39,1.62
2.122,1.93,-0.17,0.23,1.95
2.132,2.60,0.09,0.13,2.60
2.142,3.35,0.45,0.27,3.39
2.152,3.96,0.59,0.49,4.04
2.162,4.35,0.42,0.54,4.40
2.172,4.76,0.23,0.29,4.77
2.182,5.46,0.37,-0.26,5.48
2.192,5.93,0.85,-0.89,6.05
2.202,5.44,1.50,-1.40,5.81
2.212,4.23,2.12,-1.75,5.05
2.222,2.94,2.63,-2.04,4.44
2.232,1.50,2.79,-2.24,3.88
2.242,0.02,2.46,-2.29,3.36
2.252,-1.08,1.86,-1.99,2.93
2.262,-1.65,1.31,-1.46,2.56
2.272,-1.62,0.75,-0.86,1.99
2.282,-1.23,0.20,-0.60,1.38
2.292,-0.83,-0.16,-0.52,1.00
2.302,-0.71,-0.25,-0.30,0.81
2.312,-0.62,-0.26,-0.05,0.68
2.322,-0.65,-0.35,0.06,0.74
2.332,-0.78,-0.42,0.01,0.89
2.342,-0.62,-0.46,0.05,0.77
2.352,-0.48,-0.54,0.13,0.74
2.362,-0.41,-0.63,0.02,0.75
2.372,-0.32,-0.70,-0.14,0.78
2.382,-0.38,-0.63,-0.28,0.79
2.392,-0.56,-0.34,-0.42,0.78
2.402,-0.84,-0.03,-0.50,0.98
2.412,-1.17,0.22,-0.51,1.29
2.422,-1.38,0.40,-0.42,1.50
2.432,-1.48,0.46,-0.31,1.58
2.442,-1.59,0.29,-0.19,1.63
2.452,-1.64,0.00,-0.12,1.64
2.462,-1.57,-0.27,-0.06,1.60
2.472,-1.66,-0.49,0.00,1.73
2.482,-1.86,-0.66,0.12,1.98
2.493,-2.12,-0.75,0.31,2.27
2.503,-2.25,-0.81,0.37,2.42
2.513,-2.21,-0.78,0.46,2.39
2.522,-2.14,-0.65,0.65,2.33
2.532,-2.05,-0.40,0.76,2.22
2.542,-2.11,-0.44,0.84,2.31
2.553,-2.07,-0.47,0.79,2.27
2.562,-2.02,0.07,0.65,2.12
2.573,-2.21,0.27,0.71,2.34
2.582,-2.07,0.07,0.62,2.17
2.593,-1.90,0.15,0.39,1.94
2.602,-1.82,0.21,0.38,1.87
2.613,-1.70,0.10,0.51,1.78
2.622,-1.54,0.01,0.62,1.66
2.633,-1.33,0.03,0.71,1.51
2.642,-1.13,-0.00,0.87,1.43
2.653,-1.09,-0.08,0.95,1.45
2.662,-1.06,-0.16,1.00,1.47
2.673,-0.99,-0.09,1.09,1.47
2.683,-0.93,-0.08,1.14,1.47
2.693,-0.73,-0.09,1.15,1.36
2.703,-0.37,-0.14,1.16,1.22
2.713,-0.14,-0.16,1.29,1.31
2.723,0.11,-0.12,1.48,1.49
2.733,0.40,-0.14,1.50,1.56
2.743,0.67,-0.17,1.78,1.91
2.753,0.69,-0.49,2.56,2.70
2.763,0.72,-1.02,2.65,2.93
2.773,1.02,-1.18,2.17,2.67
2.783,1.54,-1.00,1.85,2.60
2.793,2.32,-0.74,1.60,2.92
2.803,3.54,-0.20,0.97,3.67
2.813,4.45,0.82,0.14,4.53
2.823,4.44,1.90,0.09,4.83
2.833,4.49,2.45,0.60,5.15
2.843,5.11,2.59,0.74,5.78
2.853,5.25,2.50,0.27,5.82
2.863,4.90,2.27,0.13,5.40
2.873,4.00,2.04,0.11,4.49
2.883,2.35,1.90,-0.34,3.04
2.893,0.92,1.87,-0.71,2.21
2.903,-0.16,1.73,-0.99,1.99
2.913,-0.83,1.47,-1.45,2.23
2.923,-1.10,1.14,-1.98,2.54
2.933,-0.97,0.88,-2.41,2.74
2.943,-0.57,0.66,-2.48,2.63
2.953,0.02,0.58,-2.39,2.46
2.963,0.53,0.51,-2.23,2.34
2.973,0.70,0.29,-2.12,2.26
2.983,0.61,-0.13,-2.06,2.15
2.993,0.39,-0.58,-1.87,1.99
3.003,0.17,-0.80,-1.58,1.78
3.013,-0.11,-0.82,-1.25,1.50
3.023,-0.38,-0.66,-0.87,1.16
3.033,-0.61,-0.36,-0.45,0.84
3.043,-0.84,-0.00,-0.21,0.86
3.053,-1.12,0.21,-0.17,1.15
3.063,-1.51,0.32,-0.19,1.56
3.073,-1.83,0.21,-0.14,1.84
3.083,-1.91,0.02,-0.21,1.92
3.093,-2.06,0.11,-0.17,2.07
3.103,-2.42,-0.16,0.14,2.43
3.113,-2.58,-0.87,0.48,2.76
3.123,-2.63,-1.58,0.59,3.12
3.133,-2.72,-1.87,0.40,3.32
3.143,-2.97,-1.85,0.21,3.51
3.153,-2.95,-1.74,-0.05,3.43
3.163,-2.74,-1.59,-0.34,3.19
3.173,-2.52,-1.29,-0.63,2.89
3.183,-2.40,-0.97,-0.75,2.70
3.193,-2.27,-0.67,-0.77,2.49
3.203,-2.06,-0.36,-0.75,2.22
3.213,-1.72,0.05,-0.62,1.83
3.223,-1.53,0.28,-0.55,1.65
3.233,-1.54,0.33,-0.39,1.63
3.243,-1.76,0.14,-0.27,1.79
3.253,-1.76,-0.04,-0.21,1.78
3.263,-1.72,-0.27,-0.18,1.75
3.273,-1.67,-0.52,-0.14,1.75
3.283,-1.54,-0.74,-0.05,1.70
3.293,-1.25,-0.93,-0.03,1.56
3.303,-1.04,-1.13,-0.06,1.54
3.313,-0.77,-1.32,-0.07,1.53
3.323,-0.60,-1.47,0.02,1.59
3.333,-0.73,-1.37,-0.04,1.55
3.343,-0.65,-1.09,-0.19,1.29
3.353,-0.47,-0.89,-0.31,1.05
3.363,-0.12,-0.68,-0.34,0.77
3.373,0.19,-0.53,-0.33,0.65
3.383,0.62,-0.40,-0.24,0.77
3.393,0.99,-0.37,0.04,1.06
3.403,1.04,-0.45,0.41,1.20
3.413,0.81,-0.68,0.66,1.25
3.423,0.62,-1.06,0.80,1.46
3.433,0.34,-1.41,0.92,1.71
3.443,0.15,-1.73,1.01,2.01
3.453,0.17,-1.97,1.03,2.23
3.463,0.50,-2.04,1.06,2.35
3.473,0.92,-1.93,1.22,2.46
3.483,1.19,-1.63,1.33,2.42
3.493,1.33,-1.23,1.55,2.39
3.503,1.36,-0.89,1.47,2.19
3.513,1.51,-0.66,1.06,1.96
3.523,1.71,-0.57,0.77,1.96
3.533,1.86,-0.65,0.67,2.08
3.543,2.08,-0.73,0.56,2.27
3.553,2.33,-0.62,0.54,2.47
3.565,2.56,-0.33,0.71,2.68
3.573,2.79,0.06,0.79,2.90
3.583,3.23,0.52,0.78,3.36
3.594,3.68,0.84,0.80,3.86
3.603,3.90,1.01,0.75,4.10
3.614,3.74,0.97,0.50,3.89
3.623,3.32,0.76,0.18,3.41
3.634,2.70,0.53,-0.02,2.75
3.643,2.06,0.46,-0.11,2.11
3.654,1.25,0.31,-0.30,1.32
3.663,0.62,0.06,-0.76,0.99
3.673,0.56,0.03,-1.30,1.42
3.683,0.95,0.22,-1.84,2.08
3.693,1.50,0.60,-2.14,2.68
3.703,1.74,1.10,-2.27,3.06
3.714,1.57,1.64,-2.31,3.24
3.724,0.89,2.22,-2.02,3.13
3.734,-0.27,2.58,-1.57,3.03
3.744,-1.45,2.53,-1.17,3.14
3.754,-2.31,2.18,-1.04,3.34
3.764,-2.66,1.66,-0.83,3.24
3.774,-2.51,0.93,-0.61,2.75
3.784,-2.13,0.17,-0.64,2.23
3.794,-1.47,-0.36,-0.64,1.64
3.804,-1.08,-0.55,-0.54,1.32
3.814,-0.96,-0.50,-0.53,1.21
3.824,-0.91,-0.48,-0.56,1.18
3.834,-0.94,-0.41,-0.53,1.16
3.844,-1.06,-0.36,-0.48,1.22
3.854,-1.26,-0.27,-0.48,1.37
3.864,-1.47,-0.17,-0.40,1.54
3.874,-1.68,-0.11,-0.30,1.71
3.884,-1.84,-0.12,-0.31,1.87
3.894,-2.07,-0.13,-0.36,2.10
3.904,-2.37,-0.19,-0.37,2.40
3.914,-2.61,-0.27,-0.37,2.65
3.924,-2.64,-0.37,-0.28,2.68
3.934,-2.43,-0.49,-0.14,2.49
3.944,-2.01,-0.65,-0.12,2.12
3.954,-1.53,-0.69,-0.14,1.69
3.964,-1.22,-0.62,-0.14,1.37
3.974,-1.12,-0.42,-0.06,1.20
3.984,-1.27,-0.19,-0.03,1.29
3.994,-1.55,0.06,-0.04,1.55
4.004,-1.80,0.33,0.02,1.83
4.014,-1.93,0.48,0.09,2.00
4.024,-1.83,0.47,0.15,1.90
4.034,-1.59,0.39,0.14,1.64
4.044,-1.20,0.27,0.17,1.24
4.054,-0.87,0.25,0.27,0.95
4.064,-0.78,0.23,0.45,0.93
4.074,-0.81,0.10,0.59,1.01
4.084,-0.95,0.00,0.71,1.19
4.094,-1.20,-0.09,0.73,1.41
4.104,-1.43,-0.11,0.68,1.58
4.114,-1.58,-0.26,0.72,1.76
4.124,-1.55,-0.35,0.66,1.72
4.134,-1.57,-0.21,0.63,1.70
4.144,-1.53,-0.15,0.75,1.71
4.154,-1.32,-0.30,0.79,1.56
4.164,-1.07,-0.50,0.72,1.39
4.174,-0.90,-0.67,0.69,1.32
4.184,-0.85,-0.82,0.70,1.37
4.194,-0.81,-0.85,0.67,1.35
4.204,-0.78,-0.63,0.58,1.16
4.214,-0.80,-0.24,0.46,0.95
4.224,-0.72,0.10,0.39,0.83
4.234,-0.59,0.33,0.48,0.83
4.244,-0.48,0.38,0.59,0.85
4.254,-0.39,0.29,0.75,0.90
4.264,-0.24,0.08,1.01,1.04
4.274,-0.04,-0.19,1.26,1.28
4.284,0.05,-0.41,1.42,1.47
4.294,0.12,-0.58,1.51,1.62
4.304,0.15,-0.69,1.67,1.81
4.314,0.26,-0.71,1.89,2.03
4.324,0.22,-0.73,2.20,2.33
4.334,0.09,-0.84,2.34,2.49
4.344,0.02,-1.01,2.37,2.58
4.354,0.16,-0.98,1.99,2.23
4.364,0.78,-0.56,1.14,1.49
4.374,1.59,0.27,0.03,1.61
4.384,2.68,1.16,-0.74,3.01
4.394,4.01,1.79,-0.94,4.49
4.404,4.76,2.30,-1.14,5.41
4.414,4.00,2.81,-1.08,5.00
4.424,2.04,2.84,-0.76,3.58
4.434,0.47,2.41,-0.37,2.49
4.444,-0.22,1.67,-0.31,1.71
4.454,-0.26,1.04,-0.62,1.24
4.464,-0.25,0.65,-0.95,1.18
4.474,-0.32,0.42,-1.39,1.48
4.484,-0.76,0.19,-1.74,1.91
4.494,-1.37,0.08,-2.15,2.55
4.504,-1.77,0.28,-2.62,3.17
4.514,-1.79,0.67,-2.87,3.45
4.524,-1.24,1.07,-2.81,3.25
4.534,-0.27,1.59,-2.67,3.12
4.544,0.59,2.01,-2.35,3.15
4.554,1.06,1.71,-1.96,2.81
4.564,1.32,1.22,-1.86,2.59
4.574,1.01,1.06,-1.65,2.20
4.584,0.35,1.11,-1.33,1.77
4.594,-0.14,1.03,-1.10,1.51
4.604,-0.41,0.83,-0.94,1.32
4.614,-0.64,0.51,-0.93,1.24
4.624,-0.80,0.32,-0.98,1.30
4.634,-0.86,0.19,-1.00,1.33
4.644,-0.92,0.08,-1.02,1.38
4.655,-0.99,0.05,-1.08,1.47
4.664,-1.11,0.13,-1.14,1.59
4.674,-1.23,0.21,-1.23,1.75
4.684,-1.20,0.27,-1.21,1.72
4.694,-1.03,0.24,-1.07,1.50
4.704,-0.82,0.08,-0.85,1.18
4.714,-0.60,-0.21,-0.65,0.91
4.724,-0.32,-0.54,-0.52,0.81
4.735,-0.04,-0.79,-0.37,0.87
4.744,0.14,-0.93,-0.31,0.99
4.754,0.26,-0.92,-0.28,1.00
4.765,0.17,-0.81,-0.25,0.86
4.775,-0.03,-0.64,-0.11,0.65
4.785,-0.36,-0.50,0.05,0.62
4.795,-0.46,-0.57,0.14,0.75
4.804,-0.52,-0.67,0.23,0.87
4.815,-0.55,-0.70,0.37,0.96
4.825,-0.49,-0.76,0.47,1.02
4.835,-0.41,-0.88,0.48,1.08
4.844,-0.36,-0.89,0.49,1.08
4.855,-0.34,-0.80,0.47,0.99
4.864,-0.29,-0.65,0.42,0.83
4.875,-0.26,-0.51,0.38,0.69
4.885,-0.26,-0.37,0.35,0.57
4.895,-0.24,-0.28,0.28,0.47
4.905,-0.33,-0.24,0.23,0.47
4.915,-0.38,-0.27,0.25,0.53
4.925,-0.42,-0.32,0.25,0.59
4.935,-0.50,-0.39,0.32,0.71
4.945,-0.59,-0.48,0.38,0.85
4.955,-0.65,-0.58,0.40,0.96
4.965,-0.65,-0.71,0.47,1.07
4.975,-0.64,-0.83,0.53,1.17
4.985,-0.61,-0.89,0.60,1.24
4.995,-0.53,-0.94,0.67,1.28
5.005,-0.45,-0.95,0.74,1.29
5.015,-0.35,-0.93,0.83,1.29
5.025,-0.34,-0.89,0.90,1.31
5.035,-0.35,-0.81,0.91,1.27
5.045,-0.30,-0.76,0.91,1.22
5.055,-0.29,-0.80,0.86,1.21
5.065,-0.19,-0.88,0.71,1.15
5.075,0.07,-1.01,0.46,1.11
5.085,0.43,-1.14,0.23,1.24
5.095,0.94,-1.18,0.11,1.51
5.105,1.55,-1.02,0.06,1.85
5.115,2.13,-0.66,0.04,2.23
5.125,2.70,-0.18,0.05,2.71
5.135,3.28,0.28,0.12,3.29
5.145,3.76,0.62,0.13,3.81
5.155,4.10,1.01,0.03,4.22
5.165,4.48,1.52,-0.21,4.73
5.175,4.96,1.95,-0.73,5.38
5.185,5.41,1.92,-1.44,5.92
5.195,5.44,1.68,-1.98,6.03
5.205,4.76,1.62,-2.33,5.54
5.215,3.67,1.76,-2.43,4.74
5.225,2.49,1.87,-2.37,3.91
5.235,1.31,1.89,-2.18,3.17
5.245,0.25,1.88,-2.01,2.77
5.255,-0.53,1.89,-1.84,2.69
5.265,-0.95,2.00,-1.53,2.69
5.275,-0.70,2.09,-1.03,2.43
5.285,0.01,1.86,-0.88,2.06
5.295,0.69,1.43,-1.01,1.88
5.305,1.08,0.92,-1.02,1.75
5.315,0.90,0.47,-1.08,1.49
5.325,0.43,0.18,-1.11,1.20
5.335,-0.01,-0.02,-1.09,1.09
5.345,-0.40,-0.12,-0.99,1.08
5.355,-0.91,-0.11,-0.94,1.31
5.365,-1.48,-0.05,-0.83,1.70
5.375,-1.99,0.04,-0.83,2.15
5.385,-2.31,0.14,-0.76,2.43
5.395,-2.61,0.15,-0.59,2.68
5.405,-2.68,0.00,-0.41,2.71
5.415,-2.56,-0.18,-0.32,2.59
5.425,-2.40,-0.36,-0.23,2.44
5.435,-2.30,-0.39,-0.06,2.34
5.445,-2.26,-0.39,0.09,2.29
5.455,-2.36,-0.49,0.17,2.41
5.465,-2.39,-0.49,0.19,2.45
5.475,-2.50,-0.43,0.14,2.54
5.485,-2.57,-0.40,0.08,2.60
5.495,-2.57,-0.27,0.10,2.58
5.505,-2.53,-0.14,0.20,2.54
5.515,-2.38,-0.11,0.29,2.40
5.525,-2.05,-0.22,0.31,2.08
5.535,-1.63,-0.24,0.31,1.68
5.545,-1.51,-0.34,0.38,1.60
5.555,-1.34,0.16,0.38,1.41
5.565,-1.19,0.74,0.36,1.44
5.575,-1.03,0.81,0.16,1.32
5.585,-0.76,0.86,-0.08,1.15
5.595,-0.60,0.98,-0.13,1.16
5.605,-0.56,0.89,0.04,1.05
5.615,-0.36,0.64,0.15,0.75
5.625,-0.25,0.39,0.27,0.53
5.635,-0.27,0.22,0.49,0.60
5.645,-0.39,0.07,0.62,0.73
5.655,-0.59,-0.00,0.76,0.96
5.665,-0.79,0.03,0.89,1.20
5.675,-0.92,0.08,0.96,1.33
5.685,-0.97,0.08,0.96,1.37
5.695,-0.89,0.02,0.87,1.24
5.705,-0.78,-0.06,0.84,1.14
5.716,-0.70,-0.10,0.81,1.08
5.725,-0.66,-0.10,0.77,1.02
5.735,-0.57,-0.05,0.83,1.01
5.745,-0.38,-0.03,0.91,0.98
5.755,-0.14,-0.05,0.98,0.99
5.765,0.09,-0.08,1.13,1.14
5.775,0.25,-0.17,1.28,1.31
5.785,0.36,-0.29,1.23,1.31
5.795,0.34,-0.39,1.19,1.29
5.805,0.32,-0.47,1.23,1.35
5.815,0.48,-0.51,1.18,1.37
5.825,0.93,-0.39,0.84,1.31
5.836,1.53,0.01,0.53,1.62
5.845,2.10,0.45,0.34,2.18
5.855,2.63,0.82,0.09,2.76
5.865,3.07,1.18,-0.05,3.29
5.875,3.31,1.52,-0.06,3.65
5.886,3.15,1.88,-0.02,3.67
5.896,3.04,2.25,0.30,3.79
5.906,3.21,2.34,0.56,4.01
5.916,3.76,2.19,0.29,4.36
5.926,4.27,1.88,0.19,4.67
5.936,4.35,1.39,-0.06,4.57
5.946,3.89,1.09,-0.31,4.05
5.956,2.68,1.10,-0.63,2.96
5.966,1.39,1.26,-0.88,2.07
5.976,0.51,1.31,-1.32,1.93
5.986,-0.12,1.27,-1.80,2.20
5.996,-0.46,1.01,-2.19,2.46
6.006,-0.50,0.72,-2.38,2.54
6.016,-0.23,0.51,-2.36,2.42
6.026,0.18,0.40,-2.22,2.27
6.036,0.48,0.27,-1.97,2.04
6.046,0.60,0.11,-1.77,1.87
6.056,0.53,-0.06,-1.54,1.63
6.066,0.33,-0.13,-1.24,1.29
6.076,0.01,-0.12,-0.91,0.92
6.086,-0.28,-0.10,-0.56,0.63
6.096,-0.43,-0.08,-0.18,0.47
6.106,-0.52,-0.09,0.09,0.53
6.116,-0.49,-0.11,0.17,0.53
6.126,-0.51,-0.16,0.08,0.54
6.136,-0.68,-0.25,-0.05,0.73
6.146,-1.10,-0.34,-0.26,1.18
6.156,-1.56,-0.39,-0.41,1.66
6.166,-1.94,-0.39,-0.48,2.03
6.176,-2.34,-0.36,-0.55,2.43
6.186,-2.79,-0.37,-0.49,2.86
6.196,-3.29,-0.47,-0.44,3.35
6.206,-3.72,-0.52,-0.45,3.78
6.216,-3.89,-0.45,-0.48,3.95
6.226,-3.77,-0.38,-0.54,3.83
6.236,-3.50,-0.37,-0.53,3.56
6.246,-3.24,-0.37,-0.60,3.32
6.256,-2.97,-0.37,-0.73,3.08
6.266,-2.62,-0.36,-0.89,2.79
6.276,-2.24,-0.36,-0.89,2.44
6.286,-1.91,-0.39,-0.85,2.13
6.296,-1.58,-0.38,-0.77,1.80
6.306,-1.28,-0.34,-0.72,1.51
6.316,-1.09,-0.22,-0.64,1.28
6.326,-1.02,-0.17,-0.55,1.18
6.336,-0.96,-0.20,-0.42,1.07
6.346,-0.85,-0.30,-0.27,0.94
6.356,-0.74,-0.41,-0.15,0.85
6.366,-0.55,-0.52,-0.03,0.76
6.376,-0.39,-0.65,0.01,0.75
6.386,-0.27,-0.75,0.02,0.79
6.396,-0.15,-0.75,0.06,0.77
6.406,-0.04,-0.75,0.13,0.76
6.416,-0.03,-0.72,0.13,0.73
6.426,-0.12,-0.62,0.11,0.64
6.436,-0.24,-0.58,0.02,0.63
6.446,-0.34,-0.64,-0.05,0.72
6.456,-0.43,-0.75,-0.12,0.87
6.466,-0.41,-0.78,-0.16,0.90
6.476,-0.28,-0.77,-0.19,0.84
6.486,-0.12,-0.70,-0.18,0.73
6.496,0.13,-0.55,-0.16,0.59
6.506,0.37,-0.33,-0.05,0.50
6.516,0.46,-0.11,0.06,0.48
6.526,0.45,0.04,0.13,0.47
6.536,0.31,0.07,0.15,0.35
6.546,0.12,-0.03,0.09,0.16
6.556,-0.15,-0.24,-0.01,0.29
6.566,-0.35,-0.38,-0.17,0.54
6.576,-0.26,-0.43,-0.25,0.56
6.586,0.12,-0.49,-0.26,0.57
6.596,0.63,-0.56,-0.22,0.87
6.606,1.22,-0.63,-0.16,1.38
6.616,1.72,-0.62,-0.14,1.83
6.626,2.10,-0.48,-0.04,2.15
6.636,2.21,-0.44,0.02,2.25
6.646,2.32,-0.45,-0.11,2.37
6.656,2.58,-0.37,-0.37,2.63
6.666,2.93,-0.23,-0.67,3.01
6.676,3.27,-0.07,-0.87,3.38
6.686,3.62,0.14,-0.70,3.69
6.696,3.81,0.39,-0.33,3.84
6.706,3.93,0.78,0.28,4.01
6.716,4.12,1.27,0.59,4.36
6.726,4.42,1.81,0.18,4.78
6.736,4.68,2.32,-0.74,5.27
6.746,4.48,2.41,-1.78,5.39
6.756,3.47,2.46,-2.25,4.81
6.766,1.83,2.26,-2.08,3.57
6.776,0.35,1.60,-1.76,2.40
6.786,-0.51,0.64,-1.53,1.73
6.796,-0.80,-0.17,-1.16,1.42
6.806,-0.77,-0.68,-0.78,1.29
6.817,-0.67,-0.79,-0.67,1.24
6.826,-0.89,-0.46,-0.54,1.14
6.836,-1.30,0.03,-0.36,1.35
6.846,-1.58,0.39,-0.48,1.70
6.856,-1.73,0.68,-0.63,1.96
6.866,-1.88,0.94,-0.61,2.19
6.876,-2.01,1.12,-0.57,2.37
6.886,-2.00,1.24,-0.49,2.41
6.896,-2.00,1.20,-0.27,2.35
6.907,-1.87,1.04,-0.08,2.15
6.917,-1.63,0.80,-0.05,1.82
6.926,-1.33,0.56,-0.07,1.44
6.936,-1.18,0.38,-0.08,1.25
6.947,-1.28,0.20,-0.10,1.30
6.957,-1.45,0.04,-0.04,1.45
6.967,-1.63,-0.13,-0.00,1.63
6.976,-1.79,-0.23,-0.04,1.81
6.987,-1.87,-0.25,-0.08,1.89
6.997,-1.80,-0.19,-0.17,1.82
7.007,-1.72,-0.06,-0.23,1.74
7.017,-1.61,0.06,-0.21,1.62
7.027,-1.70,0.22,-0.19,1.73
7.037,-1.77,0.43,-0.16,1.83
7.047,-1.85,0.60,-0.19,1.95
7.057,-1.85,0.72,-0.26,2.00
7.067,-1.82,0.81,-0.27,2.01
7.077,-1.71,0.83,-0.23,1.91
7.087,-1.57,0.76,-0.16,1.76
7.097,-1.37,0.65,0.04,1.51
7.107,-1.30,0.29,0.16,1.34
7.117,-1.10,0.24,0.14,1.14
7.127,-1.10,0.18,0.26,1.15
7.137,-1.14,0.16,0.36,1.21
7.147,-1.26,0.07,0.41,1.33
7.157,-1.21,0.10,0.33,1.26
7.167,-1.17,0.22,0.31,1.23
7.177,-1.04,0.29,0.24,1.10
7.187,-0.92,0.33,0.26,1.02
7.197,-0.85,0.31,0.35,0.97
7.207,-0.74,0.23,0.41,0.88
7.217,-0.66,0.13,0.44,0.81
7.227,-0.71,0.03,0.51,0.87
7.237,-0.76,0.12,0.60,0.98
7.247,-0.84,0.22,0.67,1.10
7.257,-0.86,0.27,0.65,1.11
7.267,-0.83,0.38,0.65,1.12
7.277,-0.77,0.53,0.69,1.16
7.287,-0.72,0.60,0.69,1.17
7.297,-0.68,0.55,0.75,1.15
7.307,-0.59,0.44,0.86,1.13
7.317,-0.48,0.22,0.95,1.09
7.327,-0.43,0.01,0.94,1.04
7.337,-0.49,-0.12,0.84,0.98
7.347,-0.44,-0.18,0.83,0.96
7.357,-0.33,-0.16,0.88,0.95
7.367,-0.17,-0.08,0.92,0.94
7.377,-0.05,0.03,0.91,0.92
7.387,0.10,0.13,0.92,0.93
7.397,0.32,0.19,0.99,1.06
7.407,0.61,0.08,1.11,1.27
7.417,0.95,-0.15,1.07,1.44
7.427,1.38,-0.29,0.86,1.65
7.437,1.84,-0.22,0.61,1.95
7.447,2.16,0.02,0.41,2.20
7.457,2.29,0.26,0.19,2.31
7.467,2.26,0.56,-0.06,2.33
7.477,2.21,0.96,-0.26,2.42
7.487,2.25,1.29,-0.11,2.59
7.497,2.55,1.38,0.08,2.90
7.507,3.27,1.47,0.01,3.58
7.517,3.72,1.58,-0.12,4.05
7.527,3.65,1.62,-0.26,4.00
7.537,3.32,1.64,-0.26,3.71
7.547,2.67,1.63,-0.40,3.16
7.557,1.95,1.60,-0.42,2.55
7.567,1.25,1.43,-0.45,1.95
7.577,0.61,1.34,-0.71,1.63
7.587,-0.01,1.31,-1.04,1.67
7.597,-0.68,1.26,-1.30,1.93
7.607,-1.29,1.15,-1.57,2.34
7.617,-1.68,1.08,-1.86,2.74
7.627,-1.80,0.98,-2.06,2.91
7.637,-1.59,0.80,-2.09,2.74
7.647,-1.08,0.61,-1.98,2.34
7.657,-0.51,0.48,-1.84,1.97
7.667,-0.09,0.39,-1.60,1.65
7.677,0.13,0.09,-1.40,1.41
7.687,0.13,-0.22,-1.47,1.49
7.697,-0.22,-0.39,-1.49,1.56
7.707,-0.70,-0.49,-1.48,1.71
7.717,-1.05,-0.50,-1.43,1.84
7.727,-1.19,-0.50,-1.35,1.87
7.737,-1.15,-0.49,-1.21,1.74
7.747,-0.99,-0.39,-1.08,1.52
7.757,-0.78,-0.22,-0.92,1.23
7.767,-0.65,-0.01,-0.75,0.99
7.777,-0.63,0.23,-0.60,0.90
7.787,-0.70,0.42,-0.52,0.97
7.797,-0.89,0.54,-0.47,1.14
7.807,-1.06,0.53,-0.43,1.26
7.817,-1.10,0.42,-0.47,1.27
7.827,-0.89,0.30,-0.50,1.07
7.837,-0.68,0.21,-0.49,0.87
7.847,-0.45,0.13,-0.48,0.67
7.857,-0.33,0.13,-0.45,0.58
7.867,-0.41,0.18,-0.41,0.60
7.877,-0.61,0.24,-0.30,0.72
7.887,-0.78,0.26,-0.12,0.83
7.897,-0.97,0.19,-0.04,0.99
7.907,-1.11,0.01,-0.04,1.12
7.917,-1.15,-0.26,-0.04,1.17
7.927,-1.00,-0.52,-0.07,1.13
7.937,-0.82,-0.71,-0.13,1.09
7.947,-0.57,-0.78,-0.08,0.97
7.958,-0.37,-0.78,-0.07,0.86
7.967,-0.31,-0.74,-0.02,0.80
7.977,-0.41,-0.67,0.03,0.79
7.987,-0.62,-0.53,0.03,0.81
7.997,-0.82,-0.37,0.06,0.90
8.007,-1.02,-0.35,0.08,1.08
8.018,-1.06,-0.41,0.09,1.14
8.027,-1.02,-0.52,0.12,1.15
8.038,-0.90,-0.72,0.07,1.15
8.048,-0.63,-0.91,-0.02,1.11
8.058,-0.46,-1.10,-0.04,1.19
8.068,-0.44,-1.15,-0.04,1.23
8.077,-0.57,-1.09,0.00,1.23
8.087,-0.86,-0.94,-0.02,1.27
8.097,-1.20,-0.69,-0.06,1.38
8.107,-1.46,-0.53,-0.13,1.56
8.118,-1.48,-0.42,-0.26,1.56
8.128,-1.25,-0.31,-0.36,1.33
8.138,-0.88,-0.23,-0.35,0.97
8.148,-0.57,-0.16,-0.31,0.67
8.158,-0.41,-0.06,-0.27,0.49
8.168,-0.33,0.00,-0.21,0.39
8.178,-0.26,0.00,-0.18,0.31
8.188,-0.14,-0.00,-0.18,0.22
8.198,0.02,-0.05,-0.16,0.17
8.208,0.16,-0.15,-0.14,0.26
8.218,0.21,-0.25,-0.12,0.34
8.228,0.14,-0.36,0.01,0.39
8.238,0.05,-0.43,0.14,0.46
8.248,-0.05,-0.44,0.33,0.55
8.258,-0.19,-0.52,0.54,0.77
8.268,-0.26,-0.58,0.70,0.94
8.278,-0.26,-0.66,0.84,1.10
8.288,-0.19,-0.81,0.91,1.23
8.298,-0.11,-0.91,0.93,1.30
8.308,-0.03,-1.02,0.94,1.38
8.318,-0.02,-1.05,0.94,1.41
8.328,0.05,-0.92,0.81,1.23
8.338,0.10,-0.68,0.67,0.96
8.348,0.17,-0.49,0.51,0.73
8.358,0.33,-0.41,0.35,0.63
8.368,0.52,-0.40,0.31,0.72
8.378,0.94,-0.39,0.40,1.09
8.388,1.52,-0.48,0.29,1.62
8.398,2.28,-0.44,0.15,2.33
8.408,3.18,-0.25,0.13,3.19
8.418,3.97,-0.01,0.15,3.97
8.428,4.60,0.28,0.18,4.61
8.438,5.07,0.85,0.21,5.15
8.448,5.55,1.64,-0.05,5.78
8.458,6.05,2.47,-0.54,6.56
8.468,5.89,3.03,-1.08,6.71
8.478,4.79,3.10,-1.82,5.99
8.488,3.34,2.96,-2.41,5.08
8.498,2.09,2.63,-2.70,4.31
8.508,0.99,2.01,-2.83,3.61
8.518,-0.03,1.29,-2.79,3.07
8.528,-0.69,0.74,-2.56,2.75
8.538,-0.86,0.40,-2.24,2.43
8.548,-0.57,0.25,-1.81,1.91
8.558,-0.14,0.13,-1.44,1.45
8.568,-0.03,0.07,-1.30,1.30
8.578,-0.32,0.09,-1.21,1.25
8.588,-0.58,0.22,-1.08,1.25
8.598,-0.82,0.43,-0.93,1.31
8.608,-1.11,0.74,-0.88,1.60
8.618,-1.36,1.02,-0.78,1.87
8.628,-1.47,1.11,-0.74,1.98
8.638,-1.40,0.96,-0.73,1.85
8.648,-1.33,0.77,-0.72,1.70
8.658,-1.17,0.59,-0.67,1.47
8.668,-0.98,0.39,-0.59,1.21
8.678,-0.94,0.22,-0.59,1.14
8.688,-1.04,0.09,-0.66,1.24
8.698,-1.20,-0.03,-0.63,1.35
8.708,-1.29,-0.20,-0.61,1.44
8.718,-1.33,-0.39,-0.57,1.49
8.728,-1.43,-0.51,-0.61,1.64
8.738,-1.63,-0.49,-0.64,1.82
8.748,-1.95,-0.35,-0.51,2.04
8.758,-2.30,-0.22,-0.36,2.33
8.768,-2.56,-0.13,-0.21,2.57
8.778,-2.78,-0.09,-0.05,2.78
8.788,-2.64,-0.06,0.04,2.64
8.798,-2.30,-0.07,0.11,2.30
8.808,-2.00,-0.18,0.13,2.01
8.818,-1.76,-0.32,0.14,1.79
8.828,-1.67,-0.39,0.23,1.73
8.838,-1.76,-0.30,0.28,1.80
8.848,-1.97,-0.15,0.25,2.00
8.858,-2.13,-0.01,0.27,2.15
8.868,-2.14,0.10,0.22,2.15
8.878,-1.96,0.21,0.04,1.97
8.888,-1.65,0.42,-0.05,1.70
8.898,-1.40,0.44,0.02,1.47
8.908,-1.12,0.66,-0.02,1.30
8.918,-0.89,1.08,0.05,1.40
8.928,-0.73,1.13,0.27,1.38
8.938,-0.71,1.02,0.30,1.28
8.948,-0.85,0.90,0.31,1.27
8.959,-0.95,0.67,0.41,1.23
8.968,-0.90,0.25,0.55,1.08
8.978,-0.66,-0.16,0.65,0.94
8.988,-0.32,-0.43,0.65,0.85
8.998,-0.04,-0.54,0.61,0.82
9.008,0.04,-0.57,0.60,0.82
9.018,-0.12,-0.47,0.66,0.82
9.028,-0.51,-0.38,0.75,0.98
9.038,-0.83,-0.33,0.81,1.20
9.048,-0.90,-0.24,0.89,1.28
9.059,-0.75,-0.17,0.95,1.22
9.069,-0.53,-0.19,1.00,1.15
9.078,-0.37,-0.26,1.08,1.18
9.088,-0.34,-0.28,1.11,1.19
9.098,-0.40,-0.23,1.09,1.19
9.108,-0.36,-0.25,1.06,1.15
9.118,-0.18,-0.32,0.92,0.99
9.128,0.03,-0.34,0.79,0.86
9.138,0.12,-0.30,0.69,0.76
9.148,0.08,-0.20,0.55,0.59
9.159,0.13,0.01,0.41,0.43
9.168,0.27,0.11,0.52,0.60
9.179,0.58,0.17,0.54,0.81
9.189,0.88,0.25,0.58,1.09
9.199,1.20,0.32,0.60,1.38
9.209,1.56,0.22,0.70,1.73
9.219,1.98,0.07,0.54,2.06
9.229,2.32,0.10,0.50,2.37
9.239,2.34,0.17,0.67,2.44
9.249,2.22,0.43,0.89,2.43
9.259,2.18,0.81,1.08,2.56
9.269,2.48,1.19,1.26,3.03
9.279,2.91,1.39,1.14,3.42
9.289,3.18,1.35,0.88,3.57
9.299,3.37,1.24,0.58,3.64
9.309,3.63,1.25,0.30,3.85
9.319,3.86,1.24,0.01,4.05
9.329,3.76,1.10,-0.16,3.92
9.339,3.26,0.79,-0.32,3.37
9.349,2.32,0.46,-0.56,2.43
9.359,1.39,0.39,-0.81,1.66
9.369,0.45,0.63,-1.08,1.33
9.379,-0.30,0.97,-1.41,1.74
9.389,-0.87,1.37,-1.63,2.30
9.399,-1.24,1.72,-1.70,2.71
9.409,-1.45,1.78,-1.80,2.92
9.419,-1.41,1.61,-1.90,2.86
9.429,-0.96,1.30,-1.87,2.47
9.439,-0.31,0.90,-1.85,2.08
9.449,0.26,0.47,-1.87,1.94
9.459,0.55,0.08,-2.01,2.08
9.469,0.60,-0.15,-2.16,2.25
9.479,0.52,-0.22,-2.08,2.16
9.489,0.35,-0.22,-1.95,1.99
9.499,0.22,-0.10,-1.83,1.84
9.509,0.01,0.03,-1.80,1.80
9.519,-0.22,0.21,-1.70,1.72
9.529,-0.45,0.34,-1.58,1.68
9.539,-0.77,0.42,-1.51,1.75
9.549,-1.08,0.54,-1.42,1.87
9.559,-1.38,0.63,-1.30,2.00
9.569,-1.60,0.65,-1.25,2.13
9.579,-1.72,0.59,-1.11,2.14
9.589,-1.81,0.46,-1.08,2.16
9.599,-1.93,0.41,-1.16,2.29
9.609,-2.12,0.50,-1.10,2.44
9.619,-2.42,0.57,-1.12,2.73
9.629,-2.70,0.67,-1.18,3.02
9.639,-2.96,0.73,-1.24,3.29
9.649,-3.13,0.72,-1.30,3.46
9.659,-3.22,0.63,-1.29,3.52
9.669,-3.15,0.52,-1.26,3.43
9.679,-2.88,0.38,-1.10,3.11
9.689,-2.49,0.23,-0.80,2.63
9.699,-2.09,-0.04,-0.56,2.17
9.709,-1.79,-0.34,-0.31,1.85
9.719,-1.59,-0.67,-0.09,1.72
9.729,-1.44,-0.99,0.08,1.76
9.739,-1.35,-1.34,0.00,1.90
9.749,-1.20,-1.55,-0.25,1.98
9.759,-1.03,-1.52,-0.49,1.90
9.769,-0.71,-1.15,-0.63,1.50
9.779,-0.34,-0.62,-0.64,0.95
9.789,0.04,-0.11,-0.53,0.54
9.799,0.23,0.19,-0.34,0.45
9.809,0.13,0.23,-0.23,0.36
9.819,-0.15,0.16,-0.17,0.28
9.829,-0.35,0.01,-0.04,0.36
9.839,-0.41,-0.27,0.06,0.50
9.849,-0.22,-0.58,0.12,0.63
9.859,0.03,-0.84,0.17,0.86
9.869,0.23,-0.93,0.21,0.98
9.879,0.24,-0.85,0.30,0.93
9.889,0.12,-0.66,0.32,0.75
9.899,-0.13,-0.46,0.39,0.62
9.909,-0.47,-0.39,0.40,0.73
9.919,-0.66,-0.50,0.39,0.91
9.929,-0.65,-0.76,0.32,1.05
9.939,-0.49,-1.02,0.23,1.15
9.949,-0.26,-1.24,0.13,1.27
9.959,0.00,-1.25,0.09,1.25
9.969,0.21,-1.09,0.21,1.13
9.979,0.30,-0.93,0.33,1.03
9.989,0.28,-0.84,0.40,0.97
9.999,0.28,-0.83,0.42,0.97
10.009,0.36,-0.82,0.30,0.95
10.019,0.40,-0.85,0.18,0.96
10.029,0.51,-0.86,0.07,1.00
10.039,0.62,-0.77,0.04,0.99
10.049,0.74,-0.65,-0.04,0.98
10.059,0.96,-0.47,-0.05,1.07
10.069,1.12,-0.23,0.18,1.15
10.079,1.19,0.01,0.48,1.29
10.089,1.20,0.07,0.69,1.38
10.099,1.38,-0.18,0.64,1.53
10.109,1.92,-0.61,0.34,2.05
10.119,2.94,-0.96,-0.17,3.10
10.129,4.26,-1.11,-1.03,4.52
10.139,5.35,-0.72,-1.09,5.50
10.149,5.54,-0.41,-0.99,5.64
10.160,5.08,-0.27,-0.66,5.13
10.169,4.81,0.29,0.03,4.82
10.180,4.68,1.66,0.06,4.96
10.189,4.29,3.08,-0.50,5.31
10.200,3.91,3.88,-1.45,5.69
10.210,3.39,4.17,-2.26,5.83
10.220,2.22,4.24,-2.41,5.35
10.229,0.78,3.84,-1.94,4.37
10.239,-0.49,2.73,-1.54,3.17
10.249,-1.15,1.15,-1.51,2.22
10.260,-1.10,-0.30,-1.57,1.94
10.269,-0.86,-1.06,-1.62,2.12
10.280,-1.00,-0.99,-1.41,1.99
10.290,-1.45,-0.50,-1.11,1.89
10.300,-1.85,-0.05,-1.05,2.13
10.310,-2.02,0.32,-1.12,2.34
10.320,-2.10,0.58,-1.15,2.46
10.330,-2.26,0.72,-1.15,2.64
10.340,-2.27,0.72,-1.20,2.67
10.350,-2.01,0.64,-1.12,2.39
10.360,-1.68,0.61,-0.94,2.02
10.370,-1.27,0.56,-0.91,1.66
10.380,-0.72,0.64,-0.79,1.25
10.390,-0.28,0.79,-0.62,1.04
10.400,-0.19,0.86,-0.56,1.04
10.410,-0.42,0.76,-0.63,1.07
10.420,-0.90,0.55,-0.74,1.29
10.430,-1.51,0.33,-0.79,1.74
10.440,-2.13,0.13,-0.70,2.25
10.450,-2.69,-0.04,-0.58,2.75
10.460,-3.15,-0.13,-0.40,3.18
10.470,-3.39,-0.18,-0.30,3.41
10.480,-3.27,-0.24,-0.27,3.29
10.490,-2.85,-0.17,-0.27,2.87
10.500,-2.34,-0.01,-0.24,2.35
10.510,-2.09,0.12,-0.21,2.10
10.520,-2.05,0.19,-0.20,2.07
10.530,-2.11,0.17,-0.15,2.12
10.540,-2.19,0.10,-0.04,2.19
10.550,-2.06,0.02,0.01,2.06
10.560,-1.74,-0.11,0.03,1.75
10.570,-1.39,-0.16,-0.06,1.40
10.580,-0.93,-0.04,-0.14,0.94
10.590,-0.63,0.02,-0.06,0.63
10.600,-0.37,0.29,-0.08,0.48
10.610,-0.24,0.73,0.01,0.77
10.620,-0.10,0.92,0.07,0.93
10.630,-0.03,1.00,-0.02,1.00
10.640,-0.19,1.07,-0.06,1.09
10.650,-0.37,1.05,0.02,1.11
10.660,-0.49,0.89,0.09,1.02
10.670,-0.48,0.65,0.12,0.82
10.680,-0.45,0.46,0.14,0.66
10.690,-0.35,0.34,0.13,0.51
10.700,-0.34,0.30,0.07,0.46
10.710,-0.47,0.34,0.09,0.59
10.720,-0.68,0.38,0.14,0.79
10.730,-0.86,0.39,0.23,0.97
10.740,-0.99,0.36,0.26,1.09
10.750,-1.05,0.33,0.24,1.13
10.760,-1.03,0.31,0.24,1.10
10.770,-0.94,0.30,0.22,1.01
10.780,-0.80,0.33,0.08,0.86
10.790,-0.61,0.50,-0.01,0.79
10.800,-0.53,0.76,0.08,0.93
10.810,-0.60,0.96,0.07,1.14
10.820,-0.46,1.03,-0.03,1.12
10.830,-0.07,1.10,-0.04,1.10
10.840,0.17,1.04,0.17,1.07
10.850,0.25,0.81,0.33,0.91
10.860,0.20,0.49,0.44,0.69
10.870,0.15,0.18,0.58,0.63
10.880,0.14,-0.17,0.74,0.78
10.890,0.23,-0.39,0.72,0.85
10.900,0.34,-0.45,0.70,0.90
10.910,0.44,-0.35,0.71,0.91
10.920,0.55,-0.21,0.76,0.96
10.930,0.60,-0.11,0.73,0.95
10.940,0.68,-0.04,0.47,0.83
10.950,0.70,0.16,0.26,0.76
10.960,0.59,0.33,0.38,0.77
10.970,0.66,0.29,0.18,0.74
10.980,1.26,0.42,-0.17,1.34
10.990,2.20,0.76,-0.25,2.34
11.000,3.26,1.05,-0.19,3.43
11.010,3.83,1.21,-0.20,4.02
11.020,3.55,1.07,-0.13,3.71
11.030,3.10,0.95,0.13,3.25
11.040,2.83,1.09,0.54,3.08
11.050,2.56,1.14,0.40,2.83
11.060,2.33,1.14,0.16,2.60
11.070,2.17,1.01,0.06,2.39
11.080,2.07,0.91,-0.08,2.26
11.090,1.70,0.91,-0.27,1.94
11.100,0.95,1.00,-0.53,1.47
11.110,0.20,1.15,-0.85,1.44
11.120,-0.29,1.27,-1.29,1.83
11.130,-0.60,1.33,-1.52,2.11
11.140,-0.71,1.31,-1.68,2.25
11.150,-0.55,1.09,-1.92,2.27
11.160,-0.13,0.74,-2.08,2.22
11.170,0.44,0.35,-2.01,2.09
11.180,0.89,-0.01,-1.99,2.18
11.190,1.11,-0.23,-1.95,2.26
11.200,1.02,-0.36,-1.76,2.07
11.210,0.75,-0.32,-1.57,1.78
11.220,0.40,-0.09,-1.40,1.46
11.230,0.08,0.24,-1.17,1.20
11.240,-0.19,0.49,-1.07,1.19
11.250,-0.36,0.65,-1.07,1.30
11.261,-0.60,0.66,-1.09,1.41
11.270,-1.05,0.53,-1.15,1.64
11.280,-1.52,0.46,-1.03,1.89
11.291,-1.93,0.35,-0.92,2.16
11.301,-2.29,0.20,-0.89,2.46
11.310,-2.46,0.02,-0.80,2.59
11.321,-2.54,-0.19,-0.79,2.67
11.330,-2.54,-0.35,-0.83,2.69
11.341,-2.59,-0.46,-0.95,2.80
11.350,-2.65,-0.57,-1.09,2.92
11.361,-2.68,-0.57,-1.14,2.97
11.371,-2.67,-0.49,-1.21,2.97
11.381,-2.62,-0.36,-1.25,2.92
11.390,-2.59,-0.21,-1.28,2.90
11.401,-2.55,0.00,-1.30,2.86
11.411,-2.41,0.26,-1.24,2.72
11.421,-2.11,0.48,-1.09,2.43
11.431,-1.79,0.56,-0.95,2.10
11.441,-1.48,0.48,-0.76,1.73
11.451,-1.14,0.16,-0.63,1.32
11.461,-0.70,-0.35,-0.55,0.96
11.471,-0.33,-0.83,-0.54,1.04
11.481,0.05,-1.16,-0.59,1.30
11.491,0.32,-1.20,-0.64,1.40
11.501,0.40,-0.99,-0.60,1.22
11.511,0.31,-0.69,-0.47,0.89
11.521,0.05,-0.36,-0.36,0.51
11.531,-0.36,-0.13,-0.19,0.43
11.541,-0.79,-0.11,0.05,0.79
11.551,-1.14,-0.29,0.19,1.19
11.561,-1.26,-0.58,0.29,1.42
11.571,-1.13,-0.90,0.33,1.49
11.581,-0.83,-1.24,0.25,1.52
11.591,-0.42,-1.44,0.22,1.51
11.601,0.07,-1.44,0.15,1.45
11.611,0.44,-1.26,0.07,1.34
11.621,0.52,-0.94,0.02,1.07
11.631,0.23,-0.55,-0.01,0.59
11.642,-0.16,-0.25,-0.03,0.29
11.651,-0.38,-0.11,-0.07,0.41
11.661,-0.43,-0.07,-0.20,0.48
11.671,-0.34,-0.09,-0.31,0.47
11.681,-0.22,-0.16,-0.43,0.51
11.691,-0.04,-0.20,-0.45,0.50
11.701,0.07,-0.12,-0.36,0.39
11.711,0.06,0.03,-0.20,0.21
11.721,-0.12,0.10,0.03,0.16
11.731,-0.35,0.08,0.14,0.39
11.741,-0.52,-0.03,0.13,0.54
11.751,-0.59,-0.16,0.09,0.62
11.761,-0.46,-0.38,0.12,0.61
11.771,-0.07,-0.62,0.25,0.68
11.781,0.40,-0.88,0.38,1.04
11.791,0.77,-1.01,0.53,1.38
11.801,1.02,-0.98,0.84,1.64
11.811,1.09,-0.81,1.05,1.72
11.821,1.15,-0.64,1.10,1.71
11.831,1.30,-0.49,1.01,1.72
11.841,1.66,-0.40,0.60,1.81
11.851,2.28,-0.41,0.03,2.31
11.861,2.96,-0.49,-0.48,3.04
11.871,3.48,-0.56,-0.52,3.56
11.881,3.69,-0.60,0.04,3.74
11.891,3.85,-0.67,0.50,3.94
11.901,4.12,-0.82,0.69,4.26
11.911,4.51,-0.77,0.55,4.60
11.921,5.09,-0.09,-0.03,5.09
11.931,5.56,1.08,-0.86,5.73
11.941,5.51,2.25,-1.69,6.19
11.951,4.75,2.91,-2.15,5.97
11.961,3.45,2.88,-2.29,5.04
11.971,2.14,2.26,-2.17,3.80
11.981,0.93,1.44,-1.89,2.55
11.991,0.04,0.66,-1.62,1.75
12.001,-0.51,0.10,-1.38,1.48
12.011,-0.87,-0.13,-1.17,1.47
12.021,-1.24,0.04,-1.18,1.71
12.031,-1.62,0.52,-1.08,2.01
12.041,-1.87,0.96,-0.87,2.27
12.051,-2.08,1.21,-0.74,2.52
12.061,-2.13,1.16,-0.69,2.52
12.071,-1.96,0.81,-0.70,2.23
12.081,-1.74,0.24,-0.70,1.89
12.091,-1.51,-0.27,-0.81,1.73
12.101,-1.21,-0.53,-1.01,1.66
12.111,-1.02,-0.44,-1.04,1.52
12.121,-0.96,-0.12,-1.04,1.42
12.131,-0.88,0.34,-1.03,1.40
12.141,-0.93,0.76,-0.97,1.54
12.151,-1.16,1.01,-0.99,1.83
12.161,-1.34,1.10,-1.05,2.03
12.171,-1.51,1.03,-1.09,2.13
12.181,-1.62,0.87,-1.07,2.12
12.191,-1.68,0.56,-0.95,2.01
12.201,-1.70,0.24,-0.87,1.93
12.211,-1.77,-0.07,-0.72,1.91
12.221,-1.80,-0.25,-0.54,1.89
12.231,-1.83,-0.32,-0.32,1.89
12.241,-1.84,-0.40,-0.23,1.90
12.251,-1.72,-0.45,-0.24,1.79
12.261,-1.63,-0.43,-0.26,1.71
12.271,-1.56,-0.29,-0.24,1.60
12.281,-1.49,-0.13,-0.19,1.51
12.291,-1.42,0.05,-0.13,1.43
12.301,-1.36,0.16,-0.08,1.37
12.311,-1.33,0.10,-0.10,1.33
12.321,-1.23,0.03,-0.09,1.23
12.331,-1.22,-0.02,-0.04,1.22
12.341,-1.21,0.03,0.05,1.21
12.351,-1.23,0.17,0.08,1.24
12.361,-1.27,0.27,0.09,1.30
12.371,-1.22,0.20,0.07,1.24
12.381,-1.05,0.42,-0.02,1.13
12.391,-0.83,0.51,0.02,0.97
12.401,-0.62,0.42,0.12,0.76
12.411,-0.56,0.32,0.16,0.66
12.422,-0.48,0.18,0.11,0.52
12.431,-0.52,0.13,0.08,0.55
12.441,-0.75,0.20,0.06,0.78
12.452,-1.05,0.29,0.09,1.10
12.462,-1.26,0.39,0.11,1.32
12.472,-1.29,0.50,0.18,1.40
12.482,-1.19,0.52,0.21,1.31
12.491,-0.98,0.47,0.18,1.10
12.502,-0.76,0.30,0.16,0.83
12.512,-0.66,0.11,0.25,0.71
12.522,-0.77,-0.01,0.38,0.86
12.532,-0.89,-0.00,0.44,0.99
12.542,-0.98,0.05,0.44,1.08
12.552,-0.93,0.28,0.51,1.09
12.562,-0.75,0.35,0.66,1.06
12.572,-0.35,0.32,0.65,0.81
12.582,0.01,0.33,0.65,0.73
12.592,0.24,0.29,0.81,0.90
12.602,0.39,0.12,0.93,1.02
12.612,0.40,-0.01,0.97,1.05
12.622,0.30,-0.09,0.99,1.04
12.632,0.28,-0.09,0.98,1.02
12.642,0.31,-0.01,0.77,0.83
12.652,0.35,0.12,0.79,0.88
12.662,0.46,0.16,0.91,1.03
12.672,0.66,0.22,0.67,0.97
12.682,1.07,0.41,0.40,1.22
12.692,1.81,0.63,0.34,1.94
12.702,2.94,0.78,0.09,3.05
12.712,4.03,1.08,-0.32,4.18
12.722,4.12,1.29,-0.36,4.33
12.732,3.54,1.23,0.15,3.75
12.742,3.37,1.27,0.42,3.63
12.752,3.34,1.58,0.40,3.71
12.762,3.28,1.64,0.47,3.70
12.772,3.35,1.42,0.49,3.67
12.782,3.48,1.19,0.34,3.69
12.792,3.46,1.09,0.14,3.63
12.802,3.23,0.99,-0.11,3.38
12.812,2.54,0.81,-0.41,2.70
12.822,1.63,0.72,-0.81,1.96
12.832,0.69,0.77,-1.13,1.53
12.842,-0.09,0.76,-1.42,1.61
12.852,-0.58,0.74,-1.67,1.92
12.862,-0.96,0.72,-1.92,2.26
12.872,-1.07,0.75,-2.12,2.49
12.882,-0.95,0.84,-2.35,2.67
12.892,-0.69,1.00,-2.46,2.75
12.902,-0.45,1.16,-2.44,2.74
12.912,-0.35,1.25,-2.37,2.70
12.922,-0.55,1.21,-2.22,2.59
12.932,-0.83,0.97,-1.84,2.24
12.942,-0.95,0.61,-1.59,1.95
12.952,-1.02,0.14,-1.45,1.78
12.962,-1.07,-0.37,-1.26,1.70
12.972,-1.20,-0.88,-1.11,1.85
12.982,-1.35,-1.24,-0.97,2.08
12.992,-1.54,-1.39,-0.95,2.29
13.002,-1.67,-1.27,-0.88,2.27
13.012,-1.71,-0.92,-0.76,2.08
13.022,-1.69,-0.48,-0.64,1.87
13.032,-1.69,-0.08,-0.65,1.81
13.042,-1.82,0.21,-0.68,1.95
13.052,-1.99,0.37,-0.72,2.14
13.062,-2.17,0.47,-0.78,2.35
13.072,-2.28,0.56,-0.84,2.50
13.082,-2.40,0.57,-0.81,2.59
13.092,-2.50,0.44,-0.83,2.67
13.102,-2.54,0.26,-0.77,2.66
13.112,-2.55,0.03,-0.69,2.64
13.122,-2.47,-0.16,-0.72,2.58
13.132,-2.23,-0.31,-0.79,2.38
13.142,-1.87,-0.47,-0.89,2.13
13.152,-1.49,-0.59,-0.89,1.83
13.162,-1.17,-0.66,-0.90,1.62
13.172,-0.89,-0.67,-0.92,1.44
13.182,-0.67,-0.66,-0.91,1.31
13.192,-0.45,-0.61,-0.83,1.13
13.202,-0.31,-0.55,-0.70,0.94
13.212,-0.30,-0.52,-0.51,0.78
13.222,-0.37,-0.58,-0.38,0.78
13.232,-0.48,-0.69,-0.31,0.89
13.242,-0.54,-0.85,-0.26,1.04
13.252,-0.51,-0.96,-0.28,1.12
13.262,-0.44,-0.95,-0.24,1.08
13.272,-0.35,-0.92,-0.24,1.02
13.282,-0.26,-0.82,-0.19,0.88
13.292,-0.25,-0.70,-0.14,0.75
13.302,-0.33,-0.57,-0.02,0.66
13.312,-0.44,-0.49,0.03,0.66
13.322,-0.56,-0.53,-0.10,0.78
13.332,-0.61,-0.60,-0.24,0.89
13.342,-0.54,-0.59,-0.32,0.86
13.352,-0.37,-0.54,-0.39,0.76
13.362,-0.17,-0.49,-0.36,0.63
13.372,0.01,-0.45,-0.13,0.47
13.382,0.06,-0.40,0.09,0.42
13.392,-0.11,-0.43,0.26,0.51
13.402,-0.37,-0.55,0.46,0.80
13.412,-0.53,-0.78,0.67,1.16
13.423,-0.47,-1.03,0.83,1.40
13.433,-0.14,-1.29,0.93,1.59
13.442,0.34,-1.47,1.01,1.81
13.453,0.80,-1.51,1.03,2.00
13.462,1.19,-1.53,0.97,2.17
13.472,1.39,-1.39,1.01,2.21
13.483,1.25,-1.15,1.10,2.03
13.492,0.89,-0.88,1.11,1.67
13.502,0.63,-0.72,1.02,1.40
13.513,0.56,-0.67,0.99,1.32
13.522,0.67,-0.69,0.83,1.27
13.532,0.92,-0.63,0.45,1.20
13.543,1.28,-0.43,0.08,1.35
13.553,1.57,-0.12,-0.16,1.59
13.563,1.72,0.22,-0.36,1.77
13.573,1.86,0.44,-0.63,2.01
13.583,2.11,0.55,-0.76,2.31
13.593,2.52,0.56,-0.76,2.69
13.603,2.97,0.51,-0.71,3.09
13.613,3.40,0.35,-0.70,3.48
13.623,3.67,0.05,-0.76,3.75
13.633,3.73,-0.17,-0.83,3.83
13.643,3.63,-0.09,-0.92,3.75
13.653,3.39,0.19,-1.22,3.61
13.663,3.19,0.53,-1.50,3.57
13.673,3.15,1.00,-1.82,3.77
13.683,3.06,1.48,-2.10,4.00
13.693,2.74,1.85,-2.24,3.99
13.703,2.16,2.11,-2.19,3.73
13.713,1.42,2.18,-2.01,3.28
13.723,0.73,2.05,-1.88,2.87
13.733,0.30,1.86,-1.87,2.65
13.743,0.03,1.74,-1.69,2.43
13.753,-0.14,1.78,-1.40,2.27
13.763,-0.35,1.97,-1.29,2.38
13.773,-0.67,2.17,-1.35,2.64
13.783,-1.03,2.33,-1.45,2.93
13.793,-1.36,2.47,-1.38,3.14
13.803,-1.54,2.39,-1.27,3.11
13.813,-1.70,2.04,-1.18,2.91
13.823,-1.95,1.52,-0.92,2.64
13.833,-2.12,0.81,-0.77,2.40
13.843,-2.18,-0.01,-0.78,2.31
13.853,-2.17,-0.71,-0.69,2.38
13.863,-2.03,-1.06,-0.55,2.36
13.873,-1.96,-1.11,-0.43,2.29
13.883,-1.94,-0.95,-0.25,2.18
13.893,-2.01,-0.74,-0.23,2.15
13.903,-1.99,-0.59,-0.37,2.11
13.913,-2.00,-0.48,-0.47,2.10
13.923,-2.02,-0.42,-0.55,2.14
13.933,-1.99,-0.33,-0.53,2.09
13.943,-2.08,-0.20,-0.46,2.14
13.953,-2.24,-0.07,-0.37,2.27
13.963,-2.38,0.05,-0.27,2.39
13.973,-2.47,0.11,-0.18,2.48
13.983,-2.49,0.10,-0.16,2.49
13.993,-2.30,0.06,-0.17,2.31
14.003,-1.97,0.00,-0.19,1.98
14.013,-1.64,-0.08,-0.20,1.66
14.023,-1.29,-0.11,-0.23,1.31
14.033,-0.93,-0.06,-0.25,0.97
14.043,-0.82,0.05,-0.24,0.85
14.053,-0.92,0.18,-0.20,0.96
14.063,-1.04,0.28,-0.13,1.09
14.073,-1.04,0.25,-0.10,1.08
14.083,-0.88,0.17,-0.12,0.90
14.093,-0.71,0.14,-0.14,0.73
14.103,-0.52,0.23,-0.12,0.58
14.113,-0.40,0.28,-0.06,0.49
14.123,-0.34,0.26,0.07,0.43
14.133,-0.49,0.14,0.34,0.61
14.143,-0.73,0.18,0.45,0.88
14.153,-1.01,0.39,0.51,1.20
14.163,-1.32,0.26,0.65,1.49
14.173,-1.55,0.09,0.70,1.70
14.183,-1.50,-0.07,0.66,1.64
14.193,-1.24,-0.18,0.56,1.37
14.203,-0.97,-0.24,0.45,1.09
14.213,-0.81,-0.09,0.35,0.89
14.223,-0.76,0.07,0.38,0.86
14.233,-0.77,0.27,0.51,0.97
14.243,-0.87,0.46,0.64,1.18
14.253,-0.90,0.67,0.75,1.34
14.263,-0.68,0.75,0.72,1.24
14.273,-0.42,0.60,0.63,0.97
14.283,-0.05,0.50,0.57,0.75
14.293,0.27,0.52,0.56,0.81
14.303,0.57,0.43,0.55,0.90
14.313,0.66,0.35,0.52,0.91
14.325,0.62,0.28,0.63,0.93
14.333,0.53,0.12,0.82,0.98
14.343,0.45,-0.06,0.97,1.07
14.353,0.38,-0.23,1.15,1.23
14.363,0.32,-0.39,1.22,1.32
14.373,0.30,-0.46,1.21,1.33
14.383,0.16,-0.45,1.41,1.49
14.393,0.18,-0.41,1.54,1.60
14.403,0.51,-0.33,1.24,1.38
14.413,1.15,-0.08,0.92,1.47
14.423,2.07,0.28,0.70,2.20
14.433,3.29,0.69,0.28,3.37
14.443,4.26,1.22,-0.19,4.43
14.453,4.27,1.65,-0.11,4.58
14.463,3.81,1.85,0.50,4.26
14.473,3.86,2.03,0.90,4.45
14.484,3.89,2.09,0.86,4.50
14.493,3.97,1.75,0.80,4.41
14.504,4.03,1.09,0.65,4.23
14.513,3.65,0.56,0.48,3.73
14.524,2.90,0.37,0.07,2.92
14.533,2.06,0.47,-0.11,2.11
14.543,1.21,0.60,-0.43,1.42
14.553,0.57,0.74,-0.96,1.34
14.563,0.04,0.78,-1.44,1.64
14.574,-0.37,0.70,-1.86,2.02
14.584,-0.53,0.65,-2.25,2.40
14.593,-0.40,0.65,-2.46,2.58
14.604,0.01,0.71,-2.57,2.66
14.613,0.45,0.88,-2.58,2.76
14.624,0.69,1.01,-2.57,2.85
14.633,0.65,1.11,-2.53,2.84
14.644,0.25,1.08,-2.32,2.57
14.654,-0.30,1.01,-2.20,2.44
14.664,-0.86,0.91,-2.02,2.38
14.674,-1.23,0.83,-1.76,2.31
14.684,-1.48,0.75,-1.43,2.19
14.693,-1.68,0.67,-1.16,2.15
14.704,-1.88,0.58,-1.16,2.28
14.714,-2.05,0.49,-1.07,2.37
14.724,-2.19,0.36,-0.91,2.40
14.734,-2.23,0.17,-0.79,2.37
14.744,-2.28,-0.06,-0.73,2.39
14.754,-2.38,-0.35,-0.75,2.52
14.764,-2.60,-0.68,-0.70,2.78
14.774,-2.77,-0.97,-0.67,3.02
14.784,-2.78,-1.20,-0.67,3.10
14.794,-2.63,-1.29,-0.63,2.99
14.804,-2.33,-1.21,-0.68,2.72
14.814,-2.12,-1.00,-0.77,2.47
14.824,-2.00,-0.77,-0.96,2.34
14.834,-1.87,-0.49,-1.13,2.23
14.844,-1.70,-0.17,-1.21,2.10
14.854,-1.66,0.07,-1.23,2.07
14.864,-1.59,0.32,-1.20,2.02
14.874,-1.47,0.42,-1.12,1.90
14.884,-1.41,0.45,-1.00,1.78
14.894,-1.35,0.32,-0.84,1.62
14.904,-1.23,0.12,-0.74,1.44
14.914,-1.05,-0.09,-0.66,1.24
14.924,-0.82,-0.28,-0.56,1.03
14.934,-0.62,-0.49,-0.46,0.91
14.944,-0.49,-0.67,-0.36,0.90
14.954,-0.39,-0.77,-0.34,0.92
14.964,-0.26,-0.81,-0.29,0.89
14.974,-0.16,-0.67,-0.24,0.73
14.984,-0.21,-0.50,-0.14,0.56
14.994,-0.38,-0.40,-0.12,0.56
15.004,-0.58,-0.41,-0.18,0.73
15.014,-0.69,-0.49,-0.32,0.90
15.024,-0.63,-0.62,-0.48,1.01
15.034,-0.37,-0.67,-0.64,1.00
15.044,-0.05,-0.60,-0.77,0.98
15.054,0.16,-0.45,-0.79,0.92
15.064,0.17,-0.21,-0.70,0.76
15.074,-0.03,0.00,-0.57,0.57
15.084,-0.28,0.15,-0.43,0.53
15.094,-0.47,0.16,-0.29,0.57
15.104,-0.61,-0.06,-0.15,0.63
15.114,-0.64,-0.33,-0.11,0.73
15.124,-0.58,-0.57,-0.06,0.82
15.134,-0.43,-0.76,-0.14,0.88
15.144,-0.22,-0.87,-0.16,0.91
15.154,-0.05,-0.87,-0.13,0.88
15.164,0.03,-0.75,-0.05,0.76
15.174,0.00,-0.62,0.08,0.63
15.184,0.00,-0.52,0.11,0.53
15.194,0.11,-0.51,0.08,0.52
15.204,0.32,-0.56,0.04,0.65
15.214,0.47,-0.61,-0.02,0.77
15.224,0.51,-0.63,-0.02,0.81
15.234,0.45,-0.65,0.00,0.79
15.244,0.35,-0.67,0.06,0.75
15.254,0.29,-0.62,0.12,0.70
15.264,0.24,-0.54,0.25,0.64
15.274,0.21,-0.42,0.39,0.61
15.284,0.28,-0.31,0.49,0.64
15.294,0.45,-0.32,0.46,0.72
15.304,0.71,-0.46,0.22,0.88
15.314,1.17,-0.56,-0.02,1.29
15.324,1.57,-0.58,-0.12,1.67
15.334,1.88,-0.60,-0.12,1.98
15.344,2.28,-0.59,-0.08,2.36
15.354,2.72,-0.50,-0.06,2.76
15.364,3.21,-0.33,0.05,3.23
15.374,3.68,-0.05,0.20,3.68
15.384,4.05,0.23,0.25,4.06
15.394,4.46,0.32,0.08,4.47
15.404,4.89,0.39,-0.23,4.91
15.414,4.99,0.47,-0.53,5.04
15.424,4.72,0.69,-0.98,4.87
15.434,3.97,0.96,-1.44,4.33
15.444,2.87,1.29,-1.56,3.51
15.454,1.89,1.61,-1.59,2.94
15.464,1.10,1.69,-1.78,2.69
15.474,0.59,1.52,-1.96,2.55
15.484,0.36,1.30,-1.92,2.35
15.494,0.24,1.20,-1.65,2.05
15.504,0.02,1.20,-1.36,1.81
15.514,-0.30,1.20,-1.14,1.68
15.524,-0.77,1.15,-0.93,1.67
15.534,-1.32,1.14,-0.65,1.86
15.544,-1.66,1.08,-0.56,2.06
15.554,-1.75,0.85,-0.67,2.05
15.564,-1.79,0.58,-0.74,2.02
15.574,-1.85,0.44,-0.79,2.06
15.584,-1.85,0.40,-0.86,2.08
15.594,-1.86,0.42,-0.83,2.08
15.605,-1.77,0.47,-0.81,2.00
15.614,-1.60,0.51,-0.72,1.82
15.625,-1.46,0.44,-0.59,1.63
15.634,-1.44,0.30,-0.57,1.58
15.645,-1.66,0.18,-0.56,1.76
15.654,-1.98,0.02,-0.47,2.03
15.664,-2.30,-0.10,-0.42,2.34
15.675,-2.58,-0.20,-0.41,2.62
15.685,-2.72,-0.22,-0.46,2.77
15.694,-2.69,-0.13,-0.52,2.74
15.704,-2.58,0.07,-0.47,2.62
15.714,-2.39,0.20,-0.42,2.43
15.724,-2.06,0.26,-0.33,2.10
15.735,-1.68,0.23,-0.29,1.72
15.745,-1.36,0.20,-0.30,1.41
15.755,-1.14,0.25,-0.27,1.19
15.764,-1.09,0.21,-0.24,1.13
15.775,-1.11,0.19,-0.13,1.13
15.784,-1.32,0.16,0.00,1.33
15.795,-1.50,0.11,0.12,1.51
15.805,-1.47,0.07,0.18,1.48
15.815,-1.32,0.01,0.21,1.34
15.825,-1.10,-0.00,0.15,1.11
15.834,-0.85,0.00,0.11,0.85
15.845,-0.71,0.18,0.07,0.74
15.855,-0.72,0.23,0.04,0.75
15.864,-0.76,0.40,-0.06,0.86
15.875,-0.86,0.67,-0.08,1.09
15.885,-0.86,0.72,-0.10,1.13
15.895,-0.85,0.74,-0.13,1.13
15.905,-0.96,0.69,0.01,1.18
15.915,-0.93,0.48,0.23,1.07
15.925,-0.89,0.26,0.40,1.01
15.935,-0.95,0.08,0.56,1.10
15.945,-1.03,-0.07,0.67,1.23
15.955,-1.12,-0.13,0.70,1.33
15.965,-1.13,-0.17,0.68,1.33
15.975,-0.95,-0.25,0.67,1.19
15.985,-0.53,-0.32,0.52,0.81
15.995,-0.11,-0.24,0.36,0.44
16.005,0.06,-0.05,0.34,0.35
16.015,0.11,0.14,0.42,0.45
16.025,-0.03,0.38,0.53,0.65
16.035,-0.33,0.54,0.67,0.92
16.045,-0.59,0.58,0.84,1.18
16.055,-0.67,0.48,1.08,1.36
16.065,-0.43,0.23,1.31,1.40
16.075,-0.06,-0.08,1.39,1.39
16.085,0.35,-0.18,1.38,1.43
16.095,0.65,-0.23,1.35,1.52
16.105,0.94,-0.31,1.29,1.63
16.115,1.03,-0.36,1.31,1.70
16.125,1.02,-0.35,1.41,1.77
16.135,1.09,-0.35,1.48,1.87
16.145,1.26,-0.42,1.48,1.99
16.155,1.51,-0.50,1.42,2.14
16.165,1.60,-0.39,0.87,1.87
16.175,1.39,0.09,0.19,1.40
16.185,1.24,0.64,0.25,1.42
16.195,1.99,0.92,0.14,2.19
16.205,3.71,1.33,0.38,3.96
16.215,5.63,1.73,0.20,5.89
16.225,6.76,1.94,-0.28,7.04
16.235,6.26,1.74,0.05,6.50
16.245,4.28,1.13,0.78,4.50
16.255,2.24,0.63,0.34,2.35
16.265,0.88,0.57,-0.11,1.05
16.275,0.14,0.61,-0.08,0.63
16.285,-0.33,0.72,-0.49,0.93
16.295,-0.37,1.05,-1.32,1.73
16.305,-0.12,1.47,-1.68,2.24
16.315,-0.07,1.61,-1.97,2.54
16.325,-0.11,1.57,-2.28,2.77
16.335,0.05,1.47,-2.49,2.90
16.345,0.40,1.29,-2.49,2.84
16.355,0.73,0.94,-2.39,2.67
16.365,0.93,0.51,-2.16,2.41
16.375,0.96,0.13,-1.90,2.13
16.385,0.74,0.05,-1.67,1.83
16.395,0.29,0.27,-1.50,1.56
16.405,-0.35,0.59,-1.38,1.55
16.415,-1.07,0.95,-1.44,2.03
16.425,-1.67,1.18,-1.48,2.53
16.435,-1.96,1.27,-1.44,2.74
16.445,-1.88,1.19,-1.35,2.61
16.455,-1.67,0.96,-1.21,2.27
16.465,-1.44,0.64,-0.98,1.86
16.475,-1.30,0.25,-0.79,1.54
16.485,-1.28,-0.06,-0.70,1.46
16.495,-1.36,-0.29,-0.73,1.57
16.505,-1.59,-0.41,-0.73,1.80
16.515,-1.83,-0.39,-0.80,2.04
16.525,-2.10,-0.23,-0.84,2.27
16.535,-2.43,-0.08,-0.87,2.58
16.545,-2.74,0.03,-0.91,2.89
16.555,-3.04,0.13,-0.93,3.18
16.565,-3.07,0.17,-0.96,3.22
16.575,-2.94,0.13,-0.99,3.11
16.585,-2.71,-0.04,-0.99,2.88
16.595,-2.32,-0.24,-1.01,2.54
16.605,-1.90,-0.42,-1.00,2.19
16.615,-1.58,-0.57,-0.98,1.94
16.625,-1.36,-0.70,-1.00,1.83
16.635,-1.22,-0.71,-0.92,1.68
16.645,-1.13,-0.63,-0.87,1.56
16.655,-1.06,-0.50,-0.79,1.41
16.665,-1.02,-0.36,-0.72,1.30
16.675,-0.97,-0.27,-0.64,1.19
16.685,-0.94,-0.24,-0.57,1.12
16.695,-0.88,-0.21,-0.47,1.02
16.705,-0.81,-0.21,-0.36,0.91
16.715,-0.81,-0.24,-0.33,0.91
16.725,-0.76,-0.28,-0.30,0.86
16.735,-0.63,-0.33,-0.28,0.76
16.745,-0.43,-0.36,-0.21,0.60
16.755,-0.27,-0.39,-0.11,0.49
16.766,-0.14,-0.44,-0.08,0.47
16.775,-0.15,-0.48,-0.10,0.51
16.785,-0.25,-0.47,-0.10,0.54
16.795,-0.39,-0.44,-0.06,0.59
16.805,-0.52,-0.45,-0.00,0.69
16.815,-0.59,-0.47,0.09,0.76
16.826,-0.57,-0.47,0.14,0.75
16.835,-0.51,-0.55,0.20,0.78
16.846,-0.36,-0.63,0.22,0.76
16.855,-0.23,-0.68,0.26,0.76
16.866,-0.18,-0.70,0.33,0.80
16.876,-0.22,-0.71,0.41,0.85
16.886,-0.34,-0.69,0.42,0.88
16.895,-0.48,-0.76,0.43,0.99
16.906,-0.56,-0.81,0.49,1.10
16.916,-0.59,-0.89,0.46,1.16
16.926,-0.58,-0.94,0.35,1.16
16.936,-0.54,-0.90,0.27,1.08
16.946,-0.51,-0.78,0.21,0.95
16.956,-0.49,-0.67,0.14,0.84
16.966,-0.42,-0.58,0.13,0.73
16.976,-0.37,-0.60,0.22,0.74
16.986,-0.37,-0.73,0.23,0.84
16.996,-0.26,-0.83,0.19,0.89
17.006,-0.16,-0.91,0.23,0.95
17.016,-0.07,-0.98,0.25,1.02
17.026,0.06,-1.05,0.27,1.09
17.036,0.25,-1.12,0.33,1.20
17.046,0.46,-1.14,0.41,1.29
17.056,0.66,-1.12,0.46,1.38
17.066,0.84,-1.00,0.48,1.39
17.076,0.88,-0.77,0.48,1.26
17.086,0.85,-0.45,0.49,1.08
17.096,0.82,-0.13,0.40,0.93
17.106,0.83,0.18,0.32,0.91
17.116,1.01,0.34,0.46,1.17
17.126,1.41,0.26,0.46,1.51
17.136,1.70,0.16,0.23,1.73
17.146,1.70,0.15,-0.01,1.71
17.156,1.60,0.14,-0.29,1.63
17.166,1.36,0.06,-0.67,1.52
17.176,1.02,0.07,-1.16,1.54
17.186,0.67,0.13,-1.53,1.67
17.196,0.69,0.13,-1.93,2.06
17.206,0.86,0.18,-2.45,2.60
17.216,0.69,0.43,-2.63,2.75
17.226,0.32,0.89,-2.54,2.71
17.236,-0.23,1.42,-2.30,2.71
17.246,-0.86,1.81,-2.05,2.87
17.256,-1.31,2.07,-1.66,2.96
17.266,-1.61,2.13,-1.24,2.95
17.276,-1.64,2.03,-0.88,2.75
17.286,-1.38,1.83,-0.68,2.39
17.296,-0.87,1.55,-0.61,1.88
17.306,-0.25,1.27,-0.63,1.44
17.316,0.30,1.04,-0.65,1.26
17.326,0.67,0.82,-0.67,1.25
17.336,0.75,0.53,-0.67,1.14
17.346,0.68,0.24,-0.63,0.95
17.356,0.63,0.06,-0.62,0.89
17.366,0.61,0.12,-0.68,0.92
17.376,0.57,0.38,-0.60,0.92
17.386,0.49,0.67,-0.46,0.95
17.396,0.20,0.92,-0.39,1.02
17.406,-0.31,1.10,-0.28,1.18
17.416,-0.82,1.08,-0.17,1.37
17.426,-1.16,0.88,-0.07,1.46
17.436,-1.33,0.62,-0.03,1.46
17.446,-1.32,0.30,-0.02,1.35
17.456,-1.24,0.08,-0.03,1.24
17.466,-1.14,-0.08,-0.04,1.14
17.476,-1.00,-0.08,-0.04,1.01
17.486,-0.88,0.04,0.01,0.88
17.496,-0.79,0.25,0.08,0.83
17.506,-0.72,0.46,0.13,0.86
17.516,-0.62,0.63,0.24,0.92
17.526,-0.61,0.72,0.34,1.00
17.536,-0.59,0.65,0.42,0.98
17.546,-0.67,0.44,0.52,0.96
17.556,-0.68,0.20,0.53,0.88
17.566,-0.61,-0.01,0.52,0.80
17.576,-0.63,-0.18,0.53,0.84
17.586,-0.64,-0.26,0.45,0.83
17.596,-0.71,-0.37,0.33,0.87
17.606,-0.85,-0.50,0.20,1.00
17.616,-0.97,-0.62,0.19,1.17
17.626,-1.01,-0.63,0.25,1.21
17.636,-1.02,-0.82,0.32,1.35
17.646,-0.87,-0.66,0.34,1.15
17.656,-0.66,-0.37,0.41,0.86
17.666,-0.42,-0.29,0.47,0.69
17.676,-0.36,-0.23,0.45,0.63
17.686,-0.40,-0.05,0.49,0.63
17.696,-0.45,-0.01,0.60,0.75
17.706,-0.36,0.02,0.48,0.60
17.716,-0.34,0.18,0.31,0.49
17.726,-0.38,0.44,0.09,0.59
17.736,-0.33,0.79,-0.07,0.86
17.746,-0.32,1.11,-0.18,1.16
17.756,-0.32,1.29,-0.20,1.35
17.766,-0.30,1.37,-0.13,1.41
17.776,-0.25,1.31,-0.02,1.33
17.786,-0.25,1.12,0.16,1.16
17.796,-0.33,0.86,0.40,1.01
17.806,-0.36,0.65,0.70,1.03
17.816,-0.33,0.49,1.06,1.21
17.826,-0.21,0.29,1.30,1.35
17.837,-0.05,0.02,1.41,1.41
17.847,0.39,-0.23,1.26,1.34
17.856,1.34,-0.23,0.80,1.58
17.867,2.35,0.04,0.37,2.38
17.876,3.10,0.45,0.16,3.14
17.886,3.73,0.94,0.08,3.85
17.896,3.84,1.53,-0.35,4.15
17.906,3.01,2.15,-0.64,3.76
17.917,1.91,2.67,-0.48,3.32
17.927,1.24,2.77,-0.23,3.05
17.936,1.01,2.24,-0.18,2.46
17.947,1.21,1.42,-0.00,1.87
17.956,1.26,0.78,0.25,1.50
17.967,0.71,0.30,0.25,0.81
17.977,0.05,-0.09,0.09,0.14
17.987,-0.72,-0.27,-0.17,0.79
17.997,-1.44,-0.32,-0.74,1.65
18.007,-2.05,-0.27,-1.39,2.49
18.017,-2.45,-0.17,-2.08,3.22
18.027,-2.59,-0.10,-2.84,3.85
18.037,-2.37,-0.02,-3.53,4.25
18.047,-1.49,0.27,-4.00,4.27
18.057,-0.21,0.75,-4.03,4.11
18.067,0.80,1.23,-3.80,4.07
18.077,1.13,1.53,-3.45,3.94
18.087,0.97,1.68,-3.01,3.58
18.097,0.49,1.72,-2.54,3.11
18.107,0.07,1.63,-2.10,2.66
18.117,-0.12,1.47,-1.72,2.26
18.127,-0.17,1.23,-1.51,1.96
18.137,-0.16,0.87,-1.44,1.69
18.147,-0.03,0.49,-1.45,1.53
18.157,0.15,0.10,-1.53,1.54
18.167,0.26,-0.24,-1.66,1.70
18.177,0.24,-0.44,-1.84,1.90
18.187,0.10,-0.46,-1.91,1.96
18.197,-0.10,-0.34,-1.91,1.94
18.207,-0.32,-0.16,-1.83,1.86
18.217,-0.53,-0.03,-1.71,1.79
18.227,-0.70,0.04,-1.54,1.69
18.237,-0.82,0.02,-1.35,1.58
18.247,-0.81,-0.05,-1.18,1.43
18.257,-0.67,-0.13,-1.02,1.23
18.267,-0.45,-0.22,-0.93,1.05
18.277,-0.21,-0.26,-0.87,0.93
18.287,-0.03,-0.20,-0.78,0.81
18.297,0.03,-0.14,-0.71,0.72
18.307,-0.04,-0.11,-0.66,0.67
18.317,-0.16,-0.12,-0.59,0.62
18.327,-0.36,-0.25,-0.54,0.70
18.337,-0.49,-0.42,-0.53,0.83
18.347,-0.43,-0.55,-0.55,0.89
18.357,-0.34,-0.58,-0.53,0.85
18.367,-0.25,-0.51,-0.40,0.69
18.377,-0.24,-0.38,-0.26,0.52
18.387,-0.27,-0.23,-0.20,0.40
18.397,-0.35,-0.14,-0.17,0.41
18.407,-0.40,-0.14,-0.18,0.46
18.417,-0.41,-0.19,-0.12,0.47
18.427,-0.40,-0.30,-0.08,0.51
18.437,-0.43,-0.45,-0.14,0.64
18.447,-0.46,-0.56,-0.18,0.75
18.457,-0.48,-0.63,-0.18,0.81
18.467,-0.51,-0.65,-0.13,0.83
18.477,-0.51,-0.61,-0.09,0.80
18.487,-0.53,-0.57,-0.02,0.78
18.497,-0.56,-0.52,0.01,0.77
18.507,-0.64,-0.54,0.01,0.84
18.517,-0.63,-0.59,0.01,0.86
18.527,-0.57,-0.66,0.05,0.88
18.537,-0.46,-0.74,0.14,0.88
18.547,-0.34,-0.78,0.21,0.88
18.557,-0.23,-0.77,0.31,0.86
18.567,-0.16,-0.75,0.39,0.86
18.577,-0.10,-0.73,0.50,0.89
18.587,-0.03,-0.72,0.62,0.95
18.597,0.01,-0.72,0.62,0.95
18.607,0.11,-0.71,0.56,0.91
18.617,0.24,-0.60,0.50,0.82
18.627,0.41,-0.47,0.39,0.74
18.637,0.61,-0.36,0.20,0.73
18.647,0.80,-0.27,0.02,0.85
18.659,1.03,-0.19,-0.02,1.05
18.667,1.43,-0.13,-0.19,1.44
18.677,2.08,-0.03,-0.44,2.13
18.687,2.88,0.23,-0.40,2.92
18.697,3.53,0.60,-0.21,3.59
18.707,3.97,0.88,0.05,4.07
18.717,4.30,0.82,0.30,4.39
18.727,4.58,0.40,0.48,4.62
18.737,4.93,0.00,0.51,4.95
18.747,5.19,-0.09,0.27,5.20
18.757,5.06,0.10,-0.11,5.06
18.767,4.68,0.47,-0.44,4.73
18.777,4.00,0.97,-0.75,4.19
18.787,3.36,1.49,-1.23,3.88
18.797,2.86,1.96,-1.75,3.88
18.807,2.24,2.33,-2.10,3.85
18.817,1.49,2.58,-2.21,3.71
18.827,0.65,2.64,-2.06,3.41
18.837,0.08,2.45,-1.80,3.04
18.847,-0.21,2.01,-1.55,2.55
18.857,-0.35,1.55,-1.35,2.08
18.868,-0.49,1.13,-1.19,1.71
18.877,-0.70,0.79,-1.11,1.53
18.887,-0.93,0.56,-0.97,1.46
18.897,-1.12,0.42,-0.77,1.42
18.907,-1.19,0.33,-0.76,1.45
18.917,-1.16,0.32,-0.81,1.45
18.928,-1.16,0.29,-0.88,1.48
18.937,-1.19,0.22,-0.93,1.53
18.947,-1.17,0.12,-1.04,1.57
18.957,-1.31,0.13,-1.17,1.76
18.968,-1.56,0.37,-1.18,1.99
18.978,-1.84,0.67,-1.15,2.28
18.988,-2.07,0.98,-1.04,2.52
18.997,-2.30,1.11,-0.98,2.73
19.008,-2.38,1.12,-0.90,2.79
19.018,-2.41,1.03,-0.85,2.76
19.028,-2.38,0.86,-0.75,2.64
19.038,-2.31,0.60,-0.71,2.49
19.048,-2.24,0.33,-0.68,2.36
19.058,-2.21,0.13,-0.57,2.29
19.068,-2.26,0.01,-0.48,2.31
19.077,-2.21,-0.06,-0.46,2.26
19.088,-2.09,-0.06,-0.52,2.15
19.098,-2.07,0.01,-0.49,2.13
19.108,-2.00,0.10,-0.42,2.04
19.118,-1.80,0.17,-0.36,1.84
19.128,-1.48,0.19,-0.30,1.52
19.138,-1.17,0.26,-0.25,1.22
19.148,-1.01,0.33,-0.17,1.07
19.158,-0.97,0.33,-0.14,1.03
19.168,-1.03,0.36,-0.14,1.10
19.178,-1.11,0.42,-0.16,1.20
19.188,-1.20,0.43,-0.19,1.29
19.198,-1.23,0.43,-0.16,1.31
19.208,-1.12,0.44,-0.14,1.21
19.218,-0.91,0.38,-0.11,0.99
19.228,-0.61,0.30,-0.09,0.69
19.238,-0.33,0.25,-0.04,0.42
19.248,-0.28,0.24,0.04,0.37
19.258,-0.32,0.23,0.18,0.43
19.268,-0.49,0.22,0.29,0.61
19.278,-0.67,0.20,0.34,0.78
19.288,-0.85,0.16,0.33,0.93
19.298,-0.98,0.14,0.25,1.02
19.308,-1.02,0.16,0.09,1.04
19.318,-1.00,0.22,-0.02,1.03
19.328,-0.99,0.33,-0.05,1.04
19.338,-0.96,0.39,0.01,1.04
19.348,-0.88,0.38,0.07,0.96
19.358,-0.73,0.30,0.16,0.80
19.368,-0.58,0.18,0.17,0.63
19.378,-0.54,0.09,0.19,0.58
19.388,-0.59,0.12,0.25,0.66
19.398,-0.67,0.27,0.36,0.81
19.408,-0.72,0.41,0.50,0.97
19.418,-0.64,0.44,0.64,1.00
19.428,-0.40,0.40,0.71,0.91
19.438,-0.12,0.34,0.75,0.83
19.448,0.12,0.22,0.80,0.84
19.458,0.34,0.10,0.88,0.95
19.468,0.57,0.00,1.01,1.16
19.478,0.77,-0.16,1.15,1.40
19.488,0.89,-0.34,1.30,1.61
19.498,0.97,-0.52,1.26,1.68
19.508,1.15,-0.60,1.06,1.68
19.518,1.31,-0.38,0.58,1.49
19.528,1.36,0.19,0.27,1.40
19.538,1.27,0.74,0.30,1.50
19.548,1.60,1.13,0.22,1.97
19.558,2.51,1.50,0.37,2.95
19.568,4.00,1.66,0.54,4.37
19.578,5.54,1.71,0.05,5.80
19.588,6.24,1.72,-0.25,6.47
19.598,5.92,1.47,0.27,6.11
19.608,4.74,1.10,0.50,4.89
19.618,3.33,0.90,0.17,3.45
19.628,2.34,0.83,-0.22,2.49
19.638,1.40,0.77,-0.53,1.69
19.648,0.47,0.90,-1.01,1.43
19.658,-0.30,1.33,-1.68,2.16
19.668,-0.88,1.75,-2.25,2.99
19.678,-1.27,1.98,-2.72,3.60
19.688,-1.39,2.04,-3.04,3.91
19.698,-1.10,1.93,-3.19,3.89
19.708,-0.50,1.67,-3.06,3.52
19.718,0.18,1.26,-2.80,3.07
19.728,0.73,0.83,-2.56,2.79
19.738,0.90,0.41,-2.28,2.48
19.748,0.75,0.16,-2.09,2.23
19.758,0.30,0.12,-1.93,1.96
19.768,-0.29,0.24,-1.71,1.76
19.778,-0.96,0.43,-1.47,1.80
19.788,-1.54,0.60,-1.20,2.05
19.798,-1.90,0.62,-1.00,2.23
19.808,-2.03,0.48,-0.82,2.25
19.818,-1.96,0.23,-0.69,2.09
19.828,-1.75,-0.02,-0.60,1.85
19.838,-1.60,-0.32,-0.58,1.73
19.848,-1.52,-0.63,-0.57,1.74
19.858,-1.59,-0.84,-0.53,1.87
19.868,-1.75,-0.93,-0.49,2.04
19.878,-1.85,-0.90,-0.43,2.10
19.888,-1.97,-0.83,-0.37,2.17
19.898,-2.05,-0.81,-0.37,2.24
19.908,-2.08,-0.78,-0.46,2.27
19.918,-2.03,-0.74,-0.55,2.23
19.928,-1.93,-0.69,-0.68,2.16
19.938,-1.78,-0.52,-0.78,2.01
19.948,-1.62,-0.25,-0.87,1.86
19.958,-1.59,0.05,-0.92,1.83
19.968,-1.67,0.25,-0.92,1.92
19.978,-1.70,0.33,-0.95,1.97
19.988,-1.63,0.30,-0.94,1.90
19.998,-1.52,0.20,-0.90,1.78
20.009,-1.33,0.08,-0.88,1.60
20.018,-1.03,0.02,-0.76,1.28
20.029,-0.70,-0.07,-0.68,0.98
20.038,-0.48,-0.20,-0.67,0.85
20.049,-0.34,-0.36,-0.60,0.78
20.058,-0.28,-0.46,-0.50,0.74
20.069,-0.29,-0.49,-0.44,0.72
20.079,-0.36,-0.49,-0.42,0.75
20.089,-0.40,-0.49,-0.42,0.76
20.098,-0.40,-0.48,-0.36,0.72
20.109,-0.37,-0.50,-0.30,0.69
20.118,-0.30,-0.56,-0.25,0.68
20.128,-0.22,-0.58,-0.21,0.66
20.139,-0.25,-0.57,-0.21,0.66
20.149,-0.36,-0.53,-0.19,0.67
20.158,-0.54,-0.51,-0.20,0.77
20.169,-0.63,-0.54,-0.25,0.87
20.179,-0.55,-0.53,-0.33,0.83
20.189,-0.41,-0.52,-0.37,0.76
20.199,-0.25,-0.56,-0.34,0.70
20.209,-0.06,-0.59,-0.29,0.66
20.219,0.06,-0.63,-0.18,0.65
20.229,0.12,-0.63,-0.06,0.65
20.239,0.07,-0.60,0.08,0.61
20.249,-0.06,-0.60,0.20,0.64
20.259,-0.21,-0.67,0.36,0.79
20.269,-0.33,-0.74,0.52,0.97
20.279,-0.42,-0.81,0.69,1.15
20.289,-0.35,-0.84,0.76,1.19
20.299,-0.18,-0.86,0.65,1.09
20.309,0.07,-0.75,0.53,0.92
20.319,0.29,-0.51,0.36,0.68
20.329,0.44,-0.18,0.03,0.48
20.339,0.56,0.17,-0.13,0.60
20.349,0.50,0.38,-0.03,0.63
20.359,0.39,0.39,0.06,0.56
20.369,0.33,0.27,-0.04,0.43
20.379,0.51,0.18,-0.15,0.56
20.389,0.88,0.19,-0.14,0.91
20.399,1.37,0.12,-0.19,1.39
20.409,1.89,0.06,-0.30,1.91
20.419,2.28,0.10,-0.36,2.31
20.429,2.52,0.15,-0.34,2.55
20.439,2.88,0.15,-0.29,2.90
20.449,3.43,0.21,-0.31,3.45
20.459,3.93,0.51,-0.37,3.98
20.469,4.20,1.07,-0.36,4.35
20.479,4.28,1.71,-0.57,4.65
20.489,4.24,2.21,-0.90,4.87
20.499,3.98,2.51,-1.02,4.81
20.509,3.36,2.49,-1.25,4.36
20.519,2.63,2.28,-1.66,3.86
20.529,1.97,2.09,-1.89,3.44
20.539,1.26,2.10,-2.04,3.19
20.549,0.65,2.20,-2.28,3.23
20.559,0.23,2.24,-2.45,3.32
20.569,-0.05,2.15,-2.34,3.18
20.579,-0.24,1.90,-2.02,2.78
20.589,-0.32,1.59,-1.69,2.34
20.599,-0.32,1.16,-1.40,1.85
20.609,-0.42,0.80,-1.10,1.42
20.619,-0.70,0.61,-0.81,1.23
20.629,-1.03,0.44,-0.52,1.24
20.639,-1.44,0.30,-0.34,1.51
20.649,-1.72,0.18,-0.17,1.74
20.659,-1.88,0.07,-0.07,1.89
20.669,-1.94,-0.05,-0.11,1.94
20.679,-1.92,-0.15,-0.30,1.95
20.689,-1.88,-0.22,-0.46,1.95
20.699,-1.84,-0.27,-0.55,1.94
20.709,-1.83,-0.33,-0.76,2.00
20.719,-1.86,-0.33,-0.97,2.12
20.729,-2.00,-0.19,-1.10,2.29
20.739,-2.24,-0.02,-1.14,2.51
20.749,-2.45,0.19,-1.08,2.68
20.759,-2.50,0.34,-1.05,2.73
20.769,-2.35,0.47,-1.07,2.63
20.779,-2.10,0.57,-1.06,2.42
20.789,-1.87,0.68,-0.98,2.22
20.799,-1.62,0.75,-0.99,2.05
20.809,-1.45,0.80,-1.03,1.95
20.819,-1.47,0.84,-0.97,1.95
20.829,-1.50,0.78,-0.81,1.87
20.839,-1.42,0.65,-0.57,1.66
20.849,-1.16,0.46,-0.34,1.30
20.859,-0.80,0.26,-0.21,0.86
20.869,-0.46,0.08,-0.11,0.48
20.879,-0.23,-0.01,-0.05,0.23
20.889,-0.15,0.03,-0.02,0.15
20.899,-0.26,0.23,0.02,0.35
20.909,-0.54,0.42,0.09,0.69
20.919,-0.82,0.56,0.09,1.00
20.929,-0.95,0.62,0.11,1.14
20.939,-0.87,0.55,0.11,1.03
20.949,-0.65,0.40,0.04,0.77
20.959,-0.33,0.24,-0.06,0.42
20.969,-0.04,0.17,-0.10,0.21
20.979,0.01,0.13,-0.06,0.14
20.989,-0.13,0.13,-0.01,0.18
20.999,-0.34,0.16,0.04,0.38
21.009,-0.51,0.17,0.14,0.55
21.019,-0.60,0.10,0.24,0.65
21.029,-0.65,-0.00,0.35,0.74
21.039,-0.66,-0.05,0.41,0.78
21.049,-0.69,-0.02,0.42,0.81
21.059,-0.71,-0.00,0.39,0.81
21.069,-0.73,0.02,0.32,0.80
21.079,-0.73,0.05,0.24,0.77
21.090,-0.66,0.10,0.16,0.69
21.099,-0.64,0.11,0.18,0.68
21.109,-0.68,0.11,0.22,0.73
21.119,-0.72,0.12,0.25,0.77
21.129,-0.79,0.09,0.27,0.84
21.139,-0.77,0.00,0.36,0.85
21.149,-0.71,-0.13,0.43,0.84
21.159,-0.64,-0.14,0.46,0.80
21.170,-0.59,-0.18,0.50,0.80
21.180,-0.61,-0.26,0.61,0.90
21.190,-0.63,-0.33,0.70,0.99
21.200,-0.58,-0.41,0.72,1.01
21.210,-0.46,-0.42,0.68,0.92
21.219,-0.38,-0.32,0.64,0.81
21.230,-0.29,-0.17,0.60,0.69
21.239,-0.21,-0.05,0.62,0.66
21.250,-0.18,-0.02,0.79,0.81
21.260,-0.11,-0.07,0.97,0.98
21.270,-0.05,-0.12,1.13,1.14
21.280,-0.07,-0.19,1.15,1.17
21.290,-0.03,-0.22,1.00,1.03
21.300,-0.01,-0.14,0.63,0.65
21.310,-0.08,0.15,0.35,0.38
21.320,-0.22,0.30,0.55,0.66
21.330,-0.06,0.29,0.71,0.77
21.340,0.46,0.34,0.62,0.84
21.350,1.12,0.43,0.51,1.31
21.360,1.75,0.62,0.43,1.91
21.370,2.12,0.76,0.39,2.28
21.380,2.14,0.76,0.46,2.32
21.390,1.75,0.74,0.62,2.00
21.400,1.22,0.78,0.90,1.71
21.410,0.91,0.91,1.09,1.69
21.420,1.05,1.11,1.01,1.83
21.430,1.48,1.35,0.70,2.12
21.440,1.88,1.50,0.27,2.42
21.450,2.21,1.57,-0.13,2.72
21.460,2.56,1.65,-0.48,3.08
21.470,2.91,1.76,-0.61,3.45
21.480,3.15,1.81,-0.66,3.69
21.490,3.19,1.77,-0.74,3.72
21.500,3.05,1.67,-0.68,3.55
21.510,2.57,1.38,-0.64,2.99
21.520,1.81,1.04,-0.77,2.23
21.530,1.04,0.76,-0.83,1.54
21.540,0.21,0.53,-0.93,1.09
21.550,-0.43,0.39,-1.18,1.31
21.560,-0.84,0.37,-1.44,1.71
21.570,-1.00,0.46,-1.64,1.98
21.580,-1.04,0.64,-1.89,2.25
21.590,-0.96,0.81,-2.16,2.50
21.600,-0.69,0.92,-2.38,2.64
21.610,-0.33,0.93,-2.53,2.72
21.620,0.02,0.82,-2.60,2.73
21.630,0.27,0.68,-2.60,2.70
21.640,0.24,0.49,-2.48,2.54
21.650,0.07,0.39,-2.34,2.37
21.660,-0.20,0.39,-2.14,2.19
21.670,-0.54,0.41,-1.92,2.04
21.680,-0.84,0.42,-1.73,1.97
21.690,-1.12,0.34,-1.58,1.96
21.700,-1.14,0.24,-1.43,1.85
21.710,-0.93,0.10,-1.30,1.60
21.720,-0.60,-0.08,-1.18,1.32
21.730,-0.36,-0.26,-1.14,1.22
21.740,-0.27,-0.33,-1.16,1.23
21.750,-0.41,-0.31,-1.13,1.24
21.760,-0.66,-0.22,-1.11,1.31
21.770,-0.94,-0.06,-1.05,1.41
21.780,-1.16,0.08,-1.00,1.54
21.790,-1.27,0.17,-0.92,1.58
21.800,-1.29,0.20,-0.89,1.57
21.810,-1.20,0.17,-0.87,1.49
21.820,-1.08,0.07,-0.85,1.38
21.830,-0.96,0.03,-0.83,1.27
21.840,-0.94,-0.00,-0.89,1.29
21.850,-1.02,0.01,-0.93,1.38
21.860,-1.17,0.05,-1.00,1.54
21.870,-1.31,0.06,-0.99,1.64
21.880,-1.36,0.06,-0.93,1.65
21.890,-1.37,-0.02,-0.84,1.61
21.900,-1.32,-0.11,-0.75,1.53
21.910,-1.25,-0.27,-0.66,1.44
21.920,-1.17,-0.43,-0.62,1.39
21.930,-1.09,-0.55,-0.62,1.37
21.940,-1.02,-0.56,-0.63,1.32
21.950,-1.01,-0.50,-0.68,1.32
21.960,-1.04,-0.34,-0.69,1.29
21.970,-1.03,-0.21,-0.76,1.30
21.980,-1.01,-0.04,-0.80,1.28
21.990,-0.94,0.06,-0.79,1.22
22.000,-0.84,0.11,-0.80,1.16
22.010,-0.78,0.07,-0.76,1.09
22.020,-0.72,-0.00,-0.65,0.97
22.030,-0.70,-0.07,-0.58,0.91
22.040,-0.66,-0.10,-0.54,0.86
22.050,-0.65,-0.16,-0.47,0.82
22.060,-0.61,-0.25,-0.47,0.81
22.070,-0.52,-0.31,-0.46,0.76
22.080,-0.41,-0.33,-0.48,0.71
22.090,-0.32,-0.35,-0.44,0.64
22.100,-0.24,-0.34,-0.39,0.57
22.110,-0.18,-0.29,-0.34,0.48
22.120,-0.18,-0.26,-0.26,0.41
22.130,-0.20,-0.28,-0.24,0.42
22.140,-0.22,-0.31,-0.23,0.44
22.150,-0.26,-0.34,-0.20,0.47
22.160,-0.24,-0.42,-0.18,0.52
22.170,-0.18,-0.49,-0.20,0.56
22.180,-0.09,-0.50,-0.20,0.55
22.190,-0.06,-0.51,-0.17,0.54
22.200,-0.11,-0.47,-0.14,0.50
22.210,-0.16,-0.49,-0.08,0.52
22.221,-0.23,-0.51,0.01,0.56
22.230,-0.21,-0.57,0.10,0.62
22.240,-0.22,-0.65,0.17,0.70
22.251,-0.28,-0.66,0.18,0.74
22.260,-0.36,-0.63,0.11,0.73
22.270,-0.35,-0.60,0.03,0.70
22.280,-0.24,-0.55,0.00,0.60
22.290,-0.11,-0.45,0.04,0.47
22.301,-0.04,-0.39,0.11,0.41
22.311,-0.03,-0.42,0.09,0.43
22.321,-0.10,-0.43,0.05,0.44
22.331,-0.10,-0.40,0.06,0.41
22.340,-0.02,-0.38,0.04,0.38
22.351,0.14,-0.37,0.02,0.40
22.360,0.37,-0.32,-0.01,0.50
22.371,0.52,-0.21,0.00,0.56
22.381,0.54,-0.04,0.08,0.55
22.391,0.43,0.08,0.17,0.47
22.401,0.28,0.10,0.25,0.39
22.411,0.19,0.08,0.29,0.35
22.421,0.12,0.01,0.33,0.35
22.431,0.17,-0.13,0.28,0.35
22.440,0.28,-0.28,0.26,0.47
22.451,0.47,-0.35,0.15,0.60
22.461,0.66,-0.34,-0.02,0.74
22.471,0.90,-0.23,-0.28,0.97
22.481,1.34,0.03,-0.50,1.43
22.491,1.86,0.37,-0.62,2.00
22.501,2.41,0.66,-0.63,2.58
22.511,2.89,0.85,-0.61,3.08
22.521,3.35,0.79,-0.53,3.48
22.531,3.76,0.50,-0.41,3.82
22.541,4.17,0.05,-0.43,4.20
22.551,4.52,-0.27,-0.47,4.55
22.561,4.67,-0.30,-0.50,4.71
22.571,4.46,-0.04,-0.70,4.52
22.581,3.94,0.49,-0.90,4.07
22.591,3.33,1.09,-1.19,3.70
22.601,2.70,1.60,-1.50,3.48
22.611,2.04,1.99,-1.78,3.36
22.621,1.43,2.30,-2.04,3.39
22.631,0.72,2.34,-2.14,3.26
22.641,0.13,2.11,-2.20,3.05
22.651,-0.11,1.79,-2.30,2.92
22.661,-0.12,1.49,-2.17,2.64
22.671,-0.12,1.19,-1.91,2.25
22.681,-0.16,0.87,-1.66,1.88
22.691,-0.28,0.62,-1.43,1.58
22.701,-0.61,0.54,-1.14,1.40
22.711,-0.97,0.57,-0.88,1.43
22.721,-1.33,0.65,-0.70,1.63
22.731,-1.66,0.65,-0.56,1.87
22.741,-2.07,0.56,-0.48,2.19
22.751,-2.35,0.46,-0.50,2.44
22.761,-2.42,0.37,-0.50,2.49
22.771,-2.28,0.33,-0.47,2.35
22.781,-2.03,0.31,-0.40,2.09
22.791,-1.65,0.20,-0.44,1.72
22.801,-1.39,0.07,-0.54,1.49
22.811,-1.36,-0.02,-0.63,1.50
22.821,-1.49,-0.05,-0.68,1.64
22.831,-1.72,-0.07,-0.69,1.86
22.841,-2.05,-0.01,-0.72,2.17
22.851,-2.35,0.15,-0.73,2.47
22.861,-2.55,0.34,-0.73,2.68
22.871,-2.65,0.52,-0.68,2.78
22.881,-2.65,0.60,-0.62,2.79
22.891,-2.39,0.58,-0.56,2.52
22.901,-1.94,0.56,-0.58,2.11
22.911,-1.60,0.56,-0.57,1.79
22.921,-1.37,0.57,-0.57,1.59
22.931,-1.19,0.54,-0.54,1.41
22.941,-1.17,0.48,-0.50,1.36
22.951,-1.21,0.48,-0.42,1.37
22.961,-1.34,0.42,-0.40,1.46
22.971,-1.45,0.31,-0.41,1.54
22.981,-1.40,0.23,-0.35,1.46
22.991,-1.21,0.23,-0.34,1.27
23.001,-1.03,0.27,-0.33,1.11
23.011,-0.92,0.36,-0.33,1.04
23.021,-0.77,0.51,-0.32,0.98
23.031,-0.63,0.60,-0.30,0.92
23.041,-0.51,0.64,-0.35,0.89
23.051,-0.48,0.62,-0.32,0.84
23.061,-0.52,0.56,-0.22,0.80
23.071,-0.54,0.45,-0.10,0.71
23.081,-0.51,0.18,-0.05,0.55
23.091,-0.30,0.38,-0.19,0.52
23.101,-0.39,0.48,-0.10,0.63
23.111,-0.44,0.34,-0.02,0.55
23.121,-0.39,0.29,-0.04,0.49
23.131,-0.51,0.34,-0.02,0.62
23.141,-0.67,0.43,0.11,0.80
23.151,-0.82,0.42,0.22,0.95
23.161,-0.91,0.35,0.24,1.01
23.171,-0.90,0.28,0.27,0.98
23.181,-0.83,0.19,0.29,0.90
23.191,-0.72,0.12,0.33,0.80
23.201,-0.65,0.09,0.37,0.75
23.211,-0.65,0.09,0.40,0.77
23.221,-0.64,0.08,0.38,0.75
23.231,-0.62,0.04,0.37,0.72
23.241,-0.58,0.02,0.40,0.71
23.252,-0.56,-0.01,0.47,0.73
23.261,-0.54,-0.03,0.47,0.72
23.272,-0.47,0.05,0.38,0.61
23.281,-0.43,0.13,0.38,0.59
23.292,-0.32,0.19,0.43,0.57
23.301,-0.31,0.26,0.46,0.61
23.311,-0.23,0.22,0.43,0.54
23.321,-0.07,0.25,0.46,0.53
23.332,-0.01,0.35,0.56,0.66
23.341,0.05,0.35,0.67,0.76
23.352,0.15,0.20,0.79,0.83
23.361,0.32,0.02,0.97,1.02
23.372,0.45,-0.17,0.97,1.08
23.381,0.46,-0.27,0.88,1.03
23.392,0.30,-0.38,0.92,1.04
23.401,0.22,-0.46,0.89,1.03
23.411,0.38,-0.29,0.69,0.84
23.421,0.76,0.02,0.57,0.95
23.432,1.32,0.32,0.40,1.41
23.441,1.94,0.56,0.07,2.02
23.452,2.34,0.85,-0.17,2.50
23.462,2.44,1.00,-0.06,2.64
23.472,2.24,0.96,0.28,2.46
23.482,2.12,0.98,0.48,2.38
23.492,2.36,1.27,0.45,2.72
23.502,2.61,1.55,0.35,3.05
23.512,2.94,1.70,0.38,3.41
23.522,3.30,1.68,0.30,3.71
23.532,3.70,1.69,0.09,4.07
23.542,4.15,1.85,-0.11,4.54
23.552,4.26,1.86,-0.31,4.66
23.562,3.73,1.67,-0.68,4.14
23.572,2.65,1.42,-1.02,3.18
23.582,1.57,1.31,-1.18,2.36
23.592,0.69,1.31,-1.42,2.05
23.602,0.09,1.25,-1.73,2.14
23.612,-0.27,1.02,-2.04,2.29
23.622,-0.44,0.63,-2.37,2.50
23.632,-0.44,0.30,-2.63,2.68
23.642,-0.31,0.07,-2.74,2.75
23.652,-0.09,0.03,-2.69,2.69
23.662,0.08,0.24,-2.57,2.59
23.672,0.16,0.50,-2.41,2.47
23.682,0.12,0.75,-2.18,2.31
23.692,-0.14,0.89,-1.89,2.10
23.702,-0.55,0.86,-1.67,1.96
23.712,-1.02,0.74,-1.54,1.99
23.722,-1.36,0.55,-1.40,2.03
23.732,-1.53,0.34,-1.32,2.05
23.742,-1.54,0.15,-1.23,1.98
23.752,-1.48,0.02,-1.16,1.88
23.762,-1.41,-0.11,-1.11,1.80
23.772,-1.19,-0.17,-0.98,1.55
23.782,-1.03,-0.22,-1.02,1.47
23.792,-1.04,-0.18,-1.03,1.47
23.802,-1.25,-0.10,-1.02,1.62
23.812,-1.53,-0.04,-0.96,1.81
23.822,-1.75,-0.05,-0.80,1.92
23.832,-1.88,-0.09,-0.69,2.01
23.842,-1.83,-0.19,-0.66,1.95
23.852,-1.70,-0.25,-0.70,1.86
23.862,-1.55,-0.27,-0.66,1.70
23.872,-1.42,-0.25,-0.67,1.59
23.882,-1.39,-0.18,-0.74,1.58
23.892,-1.44,-0.13,-0.79,1.65
23.902,-1.56,-0.13,-0.87,1.79
23.912,-1.61,-0.18,-0.95,1.87
23.922,-1.56,-0.29,-0.97,1.86
23.932,-1.37,-0.37,-0.93,1.69
23.942,-1.07,-0.40,-0.84,1.42
23.952,-0.79,-0.39,-0.70,1.13
23.962,-0.58,-0.38,-0.59,0.91
23.972,-0.46,-0.35,-0.54,0.79
23.982,-0.44,-0.31,-0.50,0.73
23.992,-0.59,-0.22,-0.46,0.78
24.002,-0.77,-0.18,-0.49,0.93
24.012,-0.86,-0.20,-0.53,1.03
24.022,-0.86,-0.20,-0.52,1.02
24.032,-0.76,-0.19,-0.45,0.91
24.042,-0.64,-0.22,-0.41,0.79
24.052,-0.57,-0.27,-0.43,0.77
24.062,-0.54,-0.28,-0.48,0.77
24.072,-0.55,-0.25,-0.53,0.80
24.082,-0.57,-0.17,-0.55,0.81
24.092,-0.56,-0.14,-0.53,0.79
24.102,-0.49,-0.14,-0.52,0.73
24.112,-0.38,-0.17,-0.57,0.70
24.122,-0.26,-0.27,-0.55,0.67
24.132,-0.25,-0.37,-0.54,0.70
24.142,-0.32,-0.53,-0.52,0.81
24.152,-0.30,-0.54,-0.53,0.82
24.162,-0.26,-0.47,-0.52,0.75
24.172,-0.28,-0.33,-0.44,0.62
24.182,-0.35,-0.17,-0.36,0.53
24.192,-0.50,-0.06,-0.28,0.58
24.202,-0.65,-0.06,-0.25,0.70
24.212,-0.65,-0.13,-0.24,0.70
24.222,-0.53,-0.28,-0.23,0.64
24.232,-0.35,-0.41,-0.19,0.57
24.242,-0.09,-0.51,-0.15,0.54
24.252,0.18,-0.51,-0.06,0.55
24.262,0.36,-0.51,-0.00,0.62
24.272,0.37,-0.47,-0.01,0.60
24.282,0.29,-0.37,0.01,0.47
24.292,0.09,-0.22,0.02,0.24
24.302,-0.10,-0.07,0.06,0.14
24.312,-0.25,0.05,0.04,0.26
24.322,-0.34,0.13,-0.02,0.36
24.332,-0.35,0.20,-0.06,0.41
24.342,-0.30,0.28,-0.05,0.41
24.353,-0.22,0.34,0.07,0.41
24.362,-0.14,0.30,0.25,0.41
24.373,-0.03,0.12,0.34,0.36
24.382,0.09,-0.12,0.40,0.43
24.392,0.21,-0.34,0.33,0.52
24.402,0.42,-0.45,0.15,0.63
24.413,0.72,-0.49,0.02,0.87
24.422,1.05,-0.54,-0.06,1.18
24.433,1.37,-0.63,-0.18,1.52
24.442,1.67,-0.64,-0.27,1.81
24.453,1.85,-0.60,-0.24,1.96
24.462,1.91,-0.54,-0.19,1.99
24.473,2.00,-0.43,-0.21,2.05
24.482,2.16,-0.37,-0.36,2.22
24.493,2.45,-0.32,-0.60,2.54
24.503,2.81,-0.27,-0.73,2.91
24.513,3.19,-0.29,-0.60,3.26
24.523,3.68,-0.34,-0.60,3.75
24.533,4.00,-0.51,-0.73,4.10
24.542,4.08,-0.66,-0.70,4.19
24.553,3.90,-0.55,-0.80,4.02
24.563,3.59,-0.12,-1.04,3.74
24.573,3.07,0.44,-1.17,3.32
24.583,2.38,1.03,-1.35,2.92
24.593,1.62,1.60,-1.52,2.74
24.603,0.97,2.00,-1.67,2.78
24.613,0.65,2.22,-1.71,2.88
24.623,0.59,2.25,-1.59,2.82
24.633,0.69,2.04,-1.62,2.69
24.643,0.75,1.77,-1.64,2.52
24.653,0.61,1.59,-1.49,2.27
24.663,0.29,1.52,-1.36,2.06
24.673,-0.19,1.56,-1.19,1.97
24.683,-0.73,1.55,-0.95,1.96
24.693,-1.16,1.49,-0.80,2.05
24.703,-1.37,1.38,-0.68,2.06
24.713,-1.46,1.14,-0.62,1.95
24.723,-1.57,0.81,-0.60,1.86
24.733,-1.71,0.49,-0.68,1.91
24.743,-1.83,0.27,-0.73,1.99
24.753,-1.93,0.11,-0.76,2.08
24.763,-2.11,-0.01,-0.78,2.25
24.773,-2.33,-0.09,-0.83,2.47
24.783,-2.43,-0.03,-0.83,2.57
24.793,-2.55,0.11,-0.82,2.68
24.803,-2.57,0.26,-0.78,2.70
24.813,-2.56,0.47,-0.71,2.70
24.823,-2.57,0.63,-0.62,2.72
24.833,-2.60,0.76,-0.57,2.76
24.843,-2.57,0.79,-0.56,2.75
24.853,-2.47,0.74,-0.63,2.66
24.863,-2.35,0.69,-0.73,2.56
24.873,-2.22,0.68,-0.81,2.46
24.883,-2.03,0.70,-0.84,2.31
24.893,-1.83,0.70,-0.89,2.16
24.903,-1.55,0.82,-0.85,1.94
24.913,-1.25,0.95,-0.75,1.74
24.923,-1.05,1.08,-0.64,1.64
24.933,-0.95,1.15,-0.45,1.56
24.943,-0.96,1.16,-0.32,1.54
24.953,-0.93,1.12,-0.23,1.47
24.963,-0.96,1.03,-0.15,1.42
24.973,-0.85,0.88,-0.07,1.23
24.983,-0.68,0.66,-0.05,0.95
24.993,-0.49,0.45,-0.00,0.67
25.003,-0.34,0.32,-0.01,0.47
25.013,-0.28,0.19,0.01,0.34
25.023,-0.27,0.03,0.04,0.27
25.033,-0.20,-0.12,0.08,0.25
25.043,-0.14,-0.23,0.07,0.27
25.053,-0.19,-0.40,0.11,0.46
25.063,-0.11,-0.26,0.06,0.29
25.073,-0.24,0.04,0.06,0.25
25.083,-0.35,0.14,0.15,0.40
25.093,-0.47,0.17,0.20,0.54
25.103,-0.53,0.21,0.20,0.60
25.113,-0.63,0.19,0.25,0.70
25.123,-0.64,0.11,0.29,0.71
25.133,-0.70,0.12,0.28,0.76
25.143,-0.73,0.08,0.34,0.81
25.153,-0.70,0.04,0.46,0.84
25.163,-0.73,-0.05,0.57,0.93
25.173,-0.73,-0.19,0.65,1.00
25.183,-0.68,-0.32,0.66,1.00
25.193,-0.58,-0.33,0.70,0.97
25.203,-0.43,-0.25,0.69,0.85
25.213,-0.24,-0.16,0.62,0.68
25.223,-0.01,0.02,0.53,0.53
25.233,0.15,0.13,0.51,0.55
25.243,0.24,0.17,0.42,0.51
25.253,0.15,0.15,0.36,0.42
25.263,0.15,0.19,0.33,0.40
25.273,-0.10,0.14,0.38,0.42
25.283,-0.25,0.20,0.62,0.70
25.293,-0.30,0.27,0.90,0.98
25.303,-0.25,0.25,1.02,1.08
25.313,-0.21,0.18,0.79,0.83
25.323,-0.28,0.22,0.69,0.78
25.333,-0.49,0.03,1.27,1.36
25.343,-0.37,-0.47,0.84,1.03
25.353,0.50,-0.56,0.14,0.76
25.363,2.03,-0.31,0.02,2.05
25.374,3.69,0.19,-0.58,3.74
25.383,4.14,1.06,-1.04,4.40
25.393,3.21,1.62,-0.31,3.61
25.403,2.04,1.70,0.60,2.73
25.413,1.67,1.75,0.88,2.57
25.423,1.49,1.39,0.81,2.19
25.433,1.66,0.76,0.86,2.02
25.443,1.96,0.43,0.73,2.14
25.454,2.26,0.52,0.22,2.33
25.463,2.66,0.90,-0.15,2.81
25.474,3.02,1.15,-0.38,3.25
25.483,3.10,1.29,-0.79,3.44
25.493,2.72,1.31,-1.25,3.27
25.503,2.03,1.22,-1.51,2.81
25.514,1.23,1.09,-1.48,2.21
25.524,0.39,0.94,-1.54,1.85
25.534,-0.41,0.84,-1.70,1.94
25.543,-0.93,0.88,-1.97,2.35
25.554,-1.12,1.02,-2.21,2.68
25.563,-1.03,1.18,-2.30,2.78
25.574,-0.71,1.26,-2.27,2.69
25.583,-0.25,1.17,-2.19,2.49
25.594,0.18,0.95,-2.02,2.24
25.603,0.36,0.66,-1.84,1.98
25.614,0.21,0.34,-1.56,1.61
25.623,-0.06,0.07,-1.30,1.30
25.634,-0.38,-0.14,-1.11,1.18
25.644,-0.53,-0.26,-0.94,1.11
25.654,-0.56,-0.40,-0.89,1.13
25.664,-0.58,-0.44,-0.91,1.17
25.674,-0.66,-0.29,-0.96,1.20
25.684,-0.81,-0.05,-1.02,1.30
25.694,-1.08,0.32,-1.03,1.53
25.704,-1.33,0.64,-1.02,1.80
25.714,-1.58,0.82,-0.99,2.04
25.724,-1.81,0.88,-0.91,2.21
25.734,-1.93,0.83,-0.93,2.30
25.744,-2.04,0.63,-0.92,2.32
25.754,-2.11,0.30,-0.87,2.30
25.764,-2.09,0.01,-0.81,2.25
25.774,-2.03,-0.27,-0.82,2.21
25.784,-1.83,-0.48,-0.88,2.08
25.794,-1.54,-0.60,-0.93,1.89
25.804,-1.27,-0.59,-0.97,1.70
25.814,-1.14,-0.50,-0.97,1.57
25.824,-1.13,-0.35,-0.94,1.51
25.834,-1.18,-0.17,-0.93,1.51
25.844,-1.21,-0.01,-0.88,1.50
25.854,-1.22,0.02,-0.90,1.52
25.864,-1.23,0.01,-0.94,1.55
25.874,-1.18,-0.01,-0.89,1.48
25.884,-1.04,-0.07,-0.91,1.38
25.894,-0.85,-0.13,-0.90,1.25
25.904,-0.66,-0.23,-0.88,1.12
25.914,-0.52,-0.26,-0.81,1.00
25.924,-0.47,-0.30,-0.71,0.90
25.934,-0.51,-0.32,-0.62,0.86
25.944,-0.62,-0.33,-0.60,0.92
25.954,-0.69,-0.32,-0.63,0.99
25.964,-0.68,-0.29,-0.70,1.02
25.974,-0.65,-0.25,-0.77,1.04
25.984,-0.57,-0.18,-0.77,0.97
25.994,-0.45,-0.10,-0.74,0.88
26.004,-0.39,-0.11,-0.69,0.80
26.014,-0.31,-0.14,-0.62,0.71
26.024,-0.27,-0.16,-0.61,0.69
26.034,-0.24,-0.19,-0.62,0.69
26.044,-0.28,-0.25,-0.60,0.71
26.054,-0.35,-0.30,-0.62,0.77
26.064,-0.37,-0.31,-0.51,0.70
26.074,-0.36,-0.35,-0.43,0.66
26.084,-0.29,-0.36,-0.39,0.61
26.094,-0.27,-0.37,-0.34,0.57
26.104,-0.29,-0.38,-0.37,0.60
26.114,-0.27,-0.38,-0.39,0.61
26.124,-0.19,-0.36,-0.36,0.54
26.134,-0.04,-0.36,-0.22,0.42
26.144,0.04,-0.34,-0.02,0.35
26.154,0.03,-0.35,0.14,0.38
26.164,-0.03,-0.43,0.17,0.47
26.174,-0.04,-0.62,0.19,0.65
26.184,-0.06,-0.80,0.18,0.82
26.194,-0.05,-0.92,0.20,0.94
26.204,-0.08,-0.92,0.23,0.95
26.214,-0.04,-0.85,0.23,0.88
26.224,0.09,-0.74,0.14,0.76
26.234,0.26,-0.55,0.04,0.61
26.244,0.32,-0.30,0.06,0.44
26.254,0.35,-0.07,-0.02,0.35
26.264,0.47,0.16,-0.12,0.51
26.274,0.57,0.43,-0.13,0.73
26.284,0.66,0.64,-0.15,0.94
26.294,0.70,0.73,-0.23,1.04
26.304,0.62,0.68,-0.21,0.94
26.314,0.42,0.45,-0.15,0.63
26.324,0.44,0.18,-0.08,0.48
26.334,0.64,-0.06,-0.16,0.66
26.344,0.93,-0.22,-0.24,0.98
26.354,1.23,-0.34,-0.31,1.31
26.364,1.49,-0.43,-0.37,1.59
26.374,1.72,-0.50,-0.45,1.84
26.384,1.96,-0.49,-0.54,2.09
26.394,2.25,-0.40,-0.55,2.35
26.404,2.62,-0.30,-0.62,2.71
26.414,2.95,-0.20,-0.66,3.03
26.424,3.24,-0.20,-0.75,3.33
26.434,3.49,-0.05,-0.92,3.61
26.444,3.61,0.33,-1.15,3.80
26.454,3.46,0.76,-1.32,3.79
26.464,3.18,1.17,-1.49,3.70
26.474,2.72,1.61,-1.62,3.55
26.484,2.12,2.00,-1.60,3.33
26.494,1.38,2.20,-1.55,3.02
26.504,0.71,2.12,-1.53,2.71
26.514,0.26,1.83,-1.48,2.37
26.524,0.09,1.46,-1.44,2.05
26.534,0.06,1.07,-1.34,1.71
26.544,0.14,0.71,-1.17,1.37
26.555,0.24,0.39,-1.16,1.25
26.564,0.19,0.27,-1.19,1.23
26.574,-0.12,0.39,-1.10,1.17
26.584,-0.60,0.73,-0.87,1.29
26.594,-1.23,1.06,-0.69,1.76
26.604,-1.71,1.30,-0.55,2.22
26.615,-1.92,1.37,-0.48,2.41
26.624,-1.91,1.23,-0.45,2.31
26.635,-1.74,1.02,-0.55,2.10
26.644,-1.46,0.86,-0.60,1.80
26.655,-1.22,0.67,-0.60,1.51
26.664,-1.08,0.40,-0.66,1.32
26.675,-1.00,0.13,-0.72,1.24
26.684,-1.04,-0.06,-0.72,1.27
26.695,-1.13,-0.17,-0.68,1.34
26.704,-1.32,-0.22,-0.67,1.49
26.715,-1.53,-0.19,-0.63,1.67
26.724,-1.76,-0.13,-0.65,1.88
26.735,-1.93,-0.03,-0.63,2.03
26.744,-1.99,0.13,-0.65,2.10
26.755,-1.94,0.31,-0.62,2.06
26.764,-1.77,0.47,-0.53,1.91
26.775,-1.61,0.58,-0.55,1.80
26.785,-1.53,0.67,-0.61,1.78
26.795,-1.51,0.70,-0.65,1.79
26.805,-1.52,0.63,-0.62,1.76
26.815,-1.55,0.51,-0.58,1.73
26.825,-1.55,0.34,-0.56,1.68
26.835,-1.50,0.25,-0.63,1.64
26.845,-1.43,0.28,-0.64,1.59
26.855,-1.43,0.43,-0.57,1.59
26.865,-1.44,0.59,-0.52,1.64
26.875,-1.32,0.67,-0.48,1.56
26.885,-1.16,0.73,-0.45,1.44
26.895,-0.99,0.70,-0.37,1.27
26.905,-0.84,0.60,-0.38,1.10
26.915,-0.67,0.52,-0.36,0.92
26.925,-0.57,0.45,-0.32,0.80
26.935,-0.51,0.43,-0.29,0.73
26.945,-0.55,0.44,-0.25,0.75
26.955,-0.55,0.49,-0.21,0.77
26.965,-0.55,0.52,-0.16,0.77
26.975,-0.57,0.52,-0.07,0.78
26.985,-0.59,0.44,0.04,0.74
26.995,-0.48,0.31,0.03,0.58
27.005,-0.35,0.49,-0.05,0.60
27.015,-0.42,0.49,0.05,0.65
27.025,-0.48,0.41,0.21,0.66
27.035,-0.56,0.33,0.24,0.69
27.045,-0.59,0.24,0.31,0.71
27.055,-0.53,0.10,0.37,0.65
27.065,-0.49,0.05,0.36,0.61
27.075,-0.53,0.10,0.37,0.66
27.085,-0.63,0.14,0.44,0.78
27.095,-0.76,0.16,0.53,0.94
27.105,-0.81,0.19,0.60,1.02
27.115,-0.81,0.13,0.69,1.07
27.125,-0.73,0.03,0.76,1.05
27.135,-0.62,-0.08,0.82,1.03
27.145,-0.44,-0.18,0.85,0.98
27.155,-0.29,-0.28,0.80,0.90
27.165,-0.15,-0.37,0.74,0.84
27.175,0.02,-0.39,0.75,0.85
27.185,0.16,-0.39,0.73,0.85
27.195,0.17,-0.30,0.75,0.82
27.205,0.15,-0.15,0.78,0.81
27.215,0.16,-0.11,0.82,0.84
27.225,0.25,-0.12,0.91,0.95
27.235,0.41,-0.16,1.06,1.15
27.245,0.71,-0.26,1.06,1.31
27.255,0.91,-0.32,0.87,1.30
27.265,0.97,-0.15,0.66,1.18
27.275,0.85,0.10,0.57,1.03
27.285,0.78,0.38,0.40,0.96
27.295,0.96,0.59,0.33,1.17
27.305,1.62,0.65,0.26,1.76
27.315,2.77,0.71,0.25,2.87
27.325,3.82,0.86,0.12,3.92
27.335,3.98,0.92,0.05,4.09
27.345,3.45,0.85,0.26,3.56
27.355,2.82,0.95,0.50,3.02
27.365,2.30,1.17,0.54,2.64
27.375,2.12,1.31,0.38,2.52
27.385,2.36,1.51,0.11,2.80
27.395,2.72,1.74,-0.23,3.24
27.405,2.78,1.88,-0.44,3.39
27.415,2.49,1.80,-0.83,3.18
27.425,2.00,1.54,-1.14,2.77
27.435,1.59,1.27,-1.50,2.53
27.445,1.17,1.08,-1.89,2.47
27.455,0.56,0.96,-2.26,2.52
27.465,-0.14,0.95,-2.38,2.56
27.475,-0.67,0.90,-2.39,2.64
27.485,-0.92,0.78,-2.41,2.69
27.495,-0.79,0.74,-2.37,2.61
27.505,-0.40,0.85,-2.36,2.54
27.515,0.06,1.00,-2.36,2.56
27.525,0.39,1.12,-2.33,2.62
27.535,0.48,1.17,-2.22,2.56
27.545,0.28,1.04,-2.15,2.41
27.555,-0.07,0.80,-2.05,2.20
27.565,-0.43,0.48,-1.99,2.09
27.576,-0.81,0.19,-1.84,2.02
27.585,-1.11,-0.16,-1.59,1.95
27.595,-1.37,-0.41,-1.35,1.97
27.605,-1.59,-0.50,-1.18,2.04
27.615,-1.74,-0.45,-1.06,2.09
27.625,-1.81,-0.34,-1.04,2.12
27.635,-1.91,-0.22,-1.08,2.21
27.645,-2.00,-0.16,-1.13,2.30
27.655,-1.99,-0.11,-1.16,2.31
27.665,-1.99,-0.12,-1.17,2.31
27.676,-1.95,-0.12,-1.16,2.27
27.685,-1.97,-0.09,-1.19,2.31
27.695,-2.06,-0.06,-1.23,2.40
27.705,-2.14,0.01,-1.22,2.46
27.716,-2.26,0.07,-1.19,2.55
27.725,-2.29,0.14,-1.17,2.58
27.735,-2.28,0.16,-1.19,2.57
27.745,-2.21,0.11,-1.21,2.53
27.756,-2.08,0.07,-1.23,2.42
27.766,-1.93,0.05,-1.31,2.33
27.776,-1.75,0.04,-1.30,2.18
27.786,-1.43,-0.03,-1.31,1.94
27.795,-1.07,-0.13,-1.30,1.69
27.806,-0.68,-0.17,-1.24,1.43
27.816,-0.29,-0.15,-1.14,1.19
27.826,-0.06,-0.06,-1.02,1.03
27.836,0.05,0.03,-0.90,0.90
27.846,0.02,0.07,-0.79,0.79
27.856,-0.08,0.05,-0.69,0.69
27.866,-0.19,0.02,-0.53,0.57
27.876,-0.25,-0.10,-0.46,0.53
27.886,-0.35,-0.24,-0.43,0.60
27.896,-0.37,-0.30,-0.37,0.60
27.906,-0.38,-0.37,-0.30,0.60
27.916,-0.34,-0.42,-0.28,0.61
27.926,-0.28,-0.43,-0.29,0.59
27.936,-0.26,-0.39,-0.26,0.53
27.946,-0.21,-0.36,-0.29,0.51
27.956,-0.21,-0.33,-0.30,0.49
27.966,-0.20,-0.25,-0.34,0.47
27.976,-0.26,-0.17,-0.38,0.49
27.986,-0.34,-0.13,-0.35,0.51
27.996,-0.39,-0.14,-0.34,0.53
28.006,-0.37,-0.17,-0.31,0.52
28.016,-0.34,-0.24,-0.32,0.53
28.026,-0.32,-0.33,-0.35,0.58
28.036,-0.30,-0.42,-0.38,0.64
28.046,-0.23,-0.51,-0.39,0.68
28.056,-0.11,-0.62,-0.35,0.72
28.066,0.04,-0.67,-0.25,0.72
28.076,0.18,-0.66,-0.18,0.71
28.086,0.23,-0.64,-0.03,0.68
28.096,0.20,-0.58,0.12,0.63
28.106,0.13,-0.54,0.15,0.58
28.116,0.09,-0.54,0.20,0.58
28.126,0.08,-0.57,0.30,0.65
28.136,0.08,-0.63,0.38,0.74
28.146,0.06,-0.68,0.37,0.78
28.156,0.01,-0.68,0.32,0.75
28.166,-0.14,-0.64,0.27,0.71
28.176,-0.35,-0.58,0.24,0.72
28.186,-0.54,-0.58,0.19,0.82
28.196,-0.57,-0.55,0.14,0.80
28.206,-0.50,-0.53,0.08,0.73
28.216,-0.34,-0.46,0.02,0.57
28.226,-0.21,-0.37,0.03,0.43
28.236,-0.13,-0.31,0.08,0.35
28.246,-0.09,-0.25,0.19,0.33
28.256,0.02,-0.20,0.38,0.43
28.266,0.13,-0.17,0.45,0.49
28.276,0.21,-0.17,0.46,0.53
28.286,0.25,-0.16,0.52,0.60
28.296,0.28,-0.14,0.67,0.74
28.306,0.42,-0.13,0.78,0.89
28.316,0.74,-0.12,0.62,0.97
28.326,1.26,-0.03,0.42,1.32
28.336,1.86,0.14,0.22,1.88
28.346,2.63,0.39,-0.03,2.66
28.356,3.49,0.68,-0.10,3.56
28.366,4.35,0.95,-0.08,4.46
28.376,5.22,1.01,-0.23,5.32
28.386,6.08,0.78,-0.58,6.16
28.396,6.74,0.44,-0.96,6.83
28.406,6.94,0.20,-1.21,7.04
28.416,6.48,0.32,-1.29,6.62
28.426,5.64,0.60,-1.63,5.90
28.436,4.58,0.94,-2.10,5.12
28.446,3.51,1.35,-2.47,4.49
28.456,2.53,1.72,-2.72,4.09
28.466,1.65,1.88,-2.89,3.82
28.476,0.75,1.78,-2.94,3.52
28.486,-0.11,1.79,-2.57,3.13
28.496,-0.82,1.89,-2.02,2.88
28.506,-1.18,1.96,-1.64,2.81
28.516,-1.12,1.81,-1.37,2.53
28.526,-0.85,1.46,-1.23,2.09
28.536,-0.70,1.16,-1.13,1.76
28.546,-0.80,0.99,-1.01,1.63
28.556,-1.20,0.93,-0.87,1.75
28.566,-1.77,0.85,-0.69,2.08
28.576,-2.38,0.73,-0.64,2.57
28.586,-2.91,0.65,-0.75,3.07
28.596,-3.25,0.56,-0.88,3.42
28.606,-3.28,0.41,-0.94,3.43
28.616,-3.15,0.23,-0.95,3.30
28.626,-2.87,0.12,-1.06,3.06
28.636,-2.52,0.15,-1.23,2.81
28.646,-2.31,0.25,-1.24,2.63
28.656,-2.33,0.34,-1.20,2.65
28.666,-2.47,0.45,-1.23,2.80
28.676,-2.67,0.51,-1.26,2.99
28.686,-2.89,0.56,-1.25,3.20
28.696,-3.05,0.63,-1.08,3.30
28.706,-3.04,0.65,-0.95,3.25
28.716,-2.84,0.62,-0.85,3.03
28.726,-2.53,0.61,-0.73,2.70
28.736,-2.23,0.60,-0.64,2.39
28.746,-1.93,0.57,-0.68,2.12
28.756,-1.55,0.56,-0.71,1.79
28.766,-1.24,0.62,-0.69,1.55
28.777,-1.13,0.65,-0.63,1.45
28.786,-1.08,0.69,-0.57,1.40
28.796,-0.96,0.68,-0.57,1.31
28.807,-0.81,0.68,-0.58,1.21
28.816,-0.60,0.64,-0.56,1.04
28.826,-0.46,0.59,-0.48,0.89
28.836,-0.38,0.56,-0.35,0.77
28.846,-0.41,0.54,-0.22,0.72
28.857,-0.42,0.59,-0.13,0.74
28.866,-0.48,0.72,-0.12,0.87
28.877,-0.58,0.86,-0.10,1.04
28.886,-0.68,0.91,-0.08,1.14
28.897,-0.72,0.82,-0.07,1.10
28.907,-0.67,0.69,-0.05,0.96
28.917,-0.52,0.49,-0.02,0.72
28.926,-0.39,0.28,0.02,0.48
28.937,-0.31,0.12,0.07,0.34
28.947,-0.33,0.07,0.12,0.35
28.957,-0.37,0.12,0.19,0.43
28.967,-0.41,0.16,0.22,0.50
28.977,-0.45,0.18,0.18,0.51
28.987,-0.45,0.24,0.16,0.54
28.997,-0.55,0.37,0.14,0.68
29.007,-0.63,0.45,0.11,0.78
29.017,-0.60,0.45,0.13,0.76
29.027,-0.56,0.25,0.12,0.62
29.037,-0.48,0.46,0.09,0.67
29.047,-0.42,0.47,0.23,0.67
29.057,-0.39,0.29,0.26,0.55
29.067,-0.57,0.17,0.29,0.66
29.077,-0.66,0.16,0.40,0.79
29.087,-0.78,0.05,0.40,0.88
29.097,-0.82,0.13,0.35,0.90
29.107,-0.76,0.18,0.36,0.86
29.117,-0.53,0.16,0.30,0.63
29.127,-0.36,0.18,0.18,0.44
29.137,-0.25,0.20,0.23,0.39
29.147,-0.18,0.12,0.39,0.44
29.157,-0.23,-0.02,0.54,0.59
29.167,-0.29,-0.14,0.64,0.71
29.177,-0.35,-0.16,0.74,0.83
29.187,-0.42,-0.15,0.78,0.90
29.197,-0.45,-0.09,0.70,0.84
29.207,-0.43,-0.04,0.62,0.75
29.217,-0.35,0.02,0.56,0.66
29.227,-0.25,-0.00,0.55,0.60
29.237,-0.10,-0.01,0.42,0.43
29.247,0.15,0.04,0.24,0.28
29.257,0.39,0.23,0.25,0.52
29.267,0.71,0.44,0.32,0.89
29.277,1.06,0.56,0.31,1.24
29.287,1.21,0.61,0.28,1.38
29.297,1.15,0.55,0.29,1.31
29.307,0.99,0.57,0.32,1.19
29.317,0.93,0.69,0.29,1.20
29.327,1.30,0.92,0.36,1.63
29.337,1.85,1.24,0.31,2.25
29.347,2.50,1.55,0.06,2.94
29.357,3.09,1.76,-0.20,3.56
29.367,3.71,1.92,-0.31,4.19
29.377,4.23,2.01,-0.46,4.71
29.387,4.66,2.00,-0.63,5.11
29.397,5.13,2.03,-0.74,5.57
29.407,5.16,1.99,-0.70,5.58
29.417,4.30,1.66,-0.88,4.69
29.427,3.04,1.34,-0.98,3.47
29.437,2.03,1.22,-1.04,2.58
29.447,1.41,1.17,-1.24,2.21
29.457,1.04,1.10,-1.64,2.24
29.467,0.66,1.04,-2.01,2.36
29.477,0.21,0.95,-2.32,2.52
29.487,-0.21,0.94,-2.48,2.66
29.497,-0.48,0.92,-2.46,2.66
29.507,-0.57,0.91,-2.34,2.58
29.517,-0.47,0.87,-2.27,2.48
29.527,-0.26,0.70,-2.19,2.32
29.537,-0.03,0.55,-2.12,2.19
29.547,-0.03,0.43,-1.99,2.03
29.557,-0.30,0.25,-1.90,1.94
29.567,-0.68,0.03,-1.82,1.94
29.577,-0.94,-0.14,-1.70,1.95
29.587,-1.11,-0.32,-1.57,1.95
29.597,-1.22,-0.47,-1.47,1.97
29.607,-1.30,-0.52,-1.38,1.97
29.617,-1.34,-0.37,-1.29,1.89
29.627,-1.37,-0.13,-1.21,1.83
29.637,-1.45,0.13,-1.16,1.86
29.647,-1.53,0.38,-1.12,1.93
29.657,-1.66,0.52,-1.12,2.07
29.667,-1.79,0.60,-1.10,2.19
29.677,-1.94,0.62,-1.10,2.32
29.687,-2.04,0.58,-1.06,2.37
29.697,-2.15,0.42,-1.02,2.41
29.707,-2.21,0.26,-0.98,2.43
29.717,-2.15,0.09,-0.94,2.35
29.727,-2.09,-0.05,-0.97,2.31
29.737,-2.07,-0.19,-1.02,2.31
29.747,-2.00,-0.19,-1.00,2.24
29.757,-1.92,-0.25,-0.99,2.17
29.767,-1.88,-0.33,-1.03,2.17
29.777,-1.76,-0.39,-1.06,2.10
29.787,-1.59,-0.43,-1.12,1.99
29.797,-1.39,-0.41,-1.15,1.85
29.807,-1.14,-0.33,-1.15,1.66
29.817,-0.96,-0.20,-1.13,1.50
29.827,-0.91,-0.01,-1.16,1.48
29.837,-1.02,0.16,-1.17,1.56
29.847,-1.11,0.26,-1.19,1.65
29.858,-1.03,0.28,-1.14,1.57
29.867,-0.90,0.20,-1.10,1.43
29.877,-0.74,0.08,-1.03,1.28
29.887,-0.58,-0.03,-0.96,1.12
29.897,-0.43,-0.17,-0.87,0.98
29.907,-0.28,-0.28,-0.80,0.90
29.917,-0.14,-0.29,-0.71,0.78
29.927,0.00,-0.25,-0.63,0.68
29.938,0.00,-0.21,-0.63,0.67
29.947,-0.10,-0.19,-0.59,0.63
29.957,-0.25,-0.24,-0.54,0.65
29.967,-0.37,-0.32,-0.43,0.66
29.978,-0.38,-0.37,-0.36,0.64
29.987,-0.35,-0.40,-0.27,0.60
29.998,-0.25,-0.39,-0.18,0.50
30.007,-0.16,-0.40,-0.11,0.45
30.018,-0.11,-0.41,-0.05,0.43
30.027,-0.06,-0.35,-0.01,0.36
30.038,-0.08,-0.28,0.03,0.29
30.048,-0.15,-0.22,0.04,0.27
30.058,-0.18,-0.25,0.06,0.31
30.068,-0.10,-0.36,0.13,0.40
30.078,-0.01,-0.51,0.19,0.54
30.088,0.03,-0.59,0.27,0.65
30.098,0.05,-0.61,0.34,0.70
30.108,0.02,-0.58,0.48,0.75
30.118,-0.06,-0.57,0.63,0.85
30.128,-0.21,-0.58,0.73,0.96
30.138,-0.30,-0.57,0.73,0.97
30.148,-0.32,-0.61,0.67,0.96
30.158,-0.26,-0.70,0.56,0.93
30.168,-0.15,-0.81,0.51,0.97
30.178,-0.08,-0.93,0.53,1.08
30.188,-0.02,-0.95,0.55,1.10
30.198,0.03,-0.87,0.55,1.03
30.208,0.07,-0.74,0.55,0.92
30.218,0.15,-0.58,0.47,0.76
30.228,0.30,-0.42,0.35,0.62
30.238,0.45,-0.24,0.21,0.55
30.248,0.66,-0.10,-0.17,0.68
30.258,0.96,0.05,-0.64,1.15
30.268,1.35,0.29,-0.85,1.63
30.278,1.72,0.60,-0.90,2.03
30.288,1.88,0.85,-1.06,2.32
30.298,2.05,0.97,-1.10,2.52
30.308,2.11,1.02,-1.17,2.61
30.318,2.16,0.97,-1.17,2.65
30.328,2.30,0.82,-1.13,2.69
30.338,2.52,0.64,-1.22,2.88
30.348,3.11,0.48,-1.35,3.42
30.358,4.10,0.49,-1.69,4.46
30.368,5.28,0.74,-2.01,5.70
30.378,5.98,1.16,-2.04,6.43
30.388,5.78,1.54,-1.96,6.30
30.398,4.87,1.73,-1.86,5.50
30.408,3.58,1.71,-1.71,4.32
30.418,2.13,1.68,-1.43,3.07
30.428,0.80,1.61,-1.05,2.08
30.438,-0.29,1.44,-0.75,1.65
30.448,-0.90,1.23,-0.55,1.62
30.458,-1.10,0.98,-0.45,1.54
30.468,-0.99,0.73,-0.55,1.35
30.478,-0.69,0.65,-0.67,1.16
30.488,-0.50,0.77,-0.91,1.29
30.498,-0.55,1.06,-0.99,1.54
30.508,-0.85,1.33,-0.95,1.84
30.518,-1.25,1.51,-0.89,2.15
30.528,-1.53,1.59,-0.87,2.37
30.538,-1.76,1.51,-0.91,2.49
30.548,-1.86,1.30,-0.98,2.47
30.558,-1.89,1.02,-1.02,2.38
30.568,-1.81,0.79,-1.03,2.23
30.578,-1.70,0.56,-1.00,2.05
30.588,-1.63,0.41,-1.01,1.96
30.598,-1.57,0.35,-0.96,1.88
30.608,-1.53,0.30,-0.89,1.80
30.618,-1.52,0.29,-0.77,1.72
30.628,-1.49,0.24,-0.69,1.66
30.638,-1.44,0.26,-0.68,1.61
30.648,-1.32,0.29,-0.64,1.49
30.658,-1.19,0.30,-0.64,1.38
30.668,-1.19,0.31,-0.65,1.39
30.678,-1.31,0.33,-0.57,1.47
30.688,-1.53,0.39,-0.51,1.66
30.698,-1.70,0.45,-0.55,1.84
30.708,-1.76,0.55,-0.64,1.96
30.718,-1.75,0.65,-0.69,1.99
30.728,-1.73,0.67,-0.70,1.98
30.738,-1.67,0.59,-0.68,1.89
30.748,-1.55,0.50,-0.62,1.74
30.758,-1.43,0.41,-0.52,1.58
30.768,-1.41,0.36,-0.40,1.51
30.778,-1.27,0.37,-0.35,1.37
30.788,-1.18,0.38,-0.28,1.27
30.798,-1.16,0.49,-0.31,1.30
30.808,-1.20,0.66,-0.39,1.43
30.818,-1.24,0.83,-0.37,1.54
30.828,-1.15,0.83,-0.29,1.45
30.839,-0.97,0.75,-0.24,1.25
30.848,-0.75,0.58,-0.23,0.97
30.858,-0.58,0.45,-0.24,0.77
30.868,-0.50,0.43,-0.32,0.74
30.878,-0.52,0.47,-0.35,0.78
30.888,-0.69,0.44,-0.30,0.87
30.898,-0.77,0.40,-0.26,0.91
30.908,-0.73,0.47,-0.31,0.92
30.918,-0.82,0.58,-0.31,1.05
30.928,-0.93,0.71,-0.28,1.20
30.938,-1.04,0.77,-0.20,1.30
30.948,-1.05,0.70,-0.08,1.27
30.959,-0.97,0.61,0.02,1.15
30.968,-0.76,0.46,0.01,0.89
30.978,-0.43,0.34,-0.07,0.55
30.988,-0.36,0.34,-0.13,0.51
30.998,-0.42,0.23,0.01,0.48
31.009,-0.49,0.10,0.24,0.55
31.019,-0.67,0.05,0.40,0.78
31.028,-0.78,0.02,0.53,0.94
31.038,-0.71,-0.08,0.60,0.93
31.048,-0.46,-0.11,0.60,0.77
31.059,-0.19,-0.11,0.57,0.61
31.068,0.02,-0.07,0.54,0.54
31.078,0.12,-0.06,0.56,0.58
31.088,0.07,-0.04,0.65,0.65
31.099,-0.09,0.01,0.70,0.70
31.108,-0.28,0.01,0.69,0.74
31.119,-0.45,0.02,0.69,0.82
31.129,-0.47,0.02,0.61,0.77
31.139,-0.34,0.07,0.54,0.65
31.149,-0.19,0.15,0.51,0.56
31.159,-0.14,0.22,0.46,0.53
31.169,-0.11,0.32,0.49,0.59
31.179,-0.17,0.40,0.60,0.74
31.189,-0.18,0.45,0.70,0.85
31.199,-0.01,0.37,0.55,0.66
31.209,0.42,0.46,0.49,0.80
31.219,0.66,0.66,0.64,1.13
31.229,0.78,0.81,0.69,1.32
31.239,0.80,0.90,0.74,1.41
31.249,0.69,0.88,0.81,1.38
31.259,0.59,0.71,0.81,1.23
31.269,0.64,0.47,0.74,1.08
31.279,0.75,0.22,0.68,1.04
31.289,0.92,-0.03,0.69,1.15
31.299,1.13,-0.21,0.73,1.36
31.309,1.42,-0.14,0.69,1.59
31.319,1.63,0.06,0.60,1.74
31.329,1.65,0.30,0.47,1.75
31.339,1.65,0.57,0.29,1.76
31.349,1.79,0.86,0.07,1.99
31.359,2.01,1.13,-0.13,2.31
31.369,2.24,1.30,-0.26,2.60
31.379,2.60,1.46,-0.29,3.00
31.389,2.93,1.67,-0.39,3.39
31.399,2.80,1.81,-0.69,3.40
31.409,2.54,1.94,-0.76,3.29
31.419,2.19,1.91,-0.82,3.02
31.429,1.78,1.75,-1.08,2.72
31.439,1.38,1.63,-1.42,2.56
31.449,0.85,1.49,-1.84,2.52
31.459,0.33,1.36,-2.34,2.72
31.469,-0.07,1.32,-2.65,2.96
31.479,-0.25,1.33,-2.91,3.20
31.489,-0.19,1.33,-3.04,3.33
31.499,0.13,1.25,-3.10,3.34
31.509,0.46,1.02,-3.14,3.34
31.519,0.69,0.71,-3.20,3.35
31.529,0.88,0.43,-3.22,3.37
31.539,0.94,0.41,-3.12,3.29
31.549,0.77,0.50,-2.91,3.05
31.559,0.49,0.67,-2.50,2.64
31.569,0.11,0.73,-2.22,2.34
31.579,-0.54,0.69,-2.08,2.25
31.589,-1.34,0.58,-1.96,2.45
31.599,-1.98,0.53,-1.81,2.73
31.609,-2.29,0.53,-1.67,2.88
31.619,-2.10,0.42,-1.63,2.69
31.629,-1.67,0.34,-1.54,2.30
31.639,-1.25,0.18,-1.43,1.91
31.649,-0.81,-0.08,-1.41,1.62
31.659,-0.60,-0.25,-1.30,1.45
31.669,-0.48,-0.33,-1.29,1.42
31.679,-0.36,-0.37,-1.37,1.46
31.689,-0.92,-0.67,-1.45,1.84
31.699,-1.69,-0.78,-1.35,2.30
31.709,-1.54,-0.44,-1.52,2.21
31.719,-1.74,0.09,-1.19,2.11
31.729,-1.65,0.17,-1.31,2.11
31.739,-1.04,0.20,-1.35,1.71
31.749,-0.68,0.13,-1.36,1.53
31.759,-0.62,-0.07,-1.45,1.58
31.769,-0.66,-0.23,-1.45,1.60
31.779,-0.78,-0.26,-1.42,1.64
31.789,-0.90,-0.23,-1.38,1.66
31.799,-1.00,-0.26,-1.29,1.65
31.809,-1.06,-0.29,-1.21,1.63
31.819,-1.04,-0.30,-1.16,1.59
31.829,-1.05,-0.23,-1.14,1.57
31.839,-0.97,-0.15,-1.13,1.50
31.849,-0.90,-0.07,-1.18,1.49
31.859,-0.85,0.03,-1.17,1.44
31.869,-0.74,0.09,-1.10,1.33
31.879,-0.57,0.16,-1.06,1.21
31.889,-0.41,0.19,-1.04,1.13
31.899,-0.28,0.20,-1.02,1.08
31.909,-0.24,0.15,-0.99,1.03
31.919,-0.28,0.14,-0.92,0.97
31.929,-0.35,0.10,-0.84,0.91
31.939,-0.43,0.02,-0.80,0.91
31.949,-0.52,-0.12,-0.74,0.91
31.959,-0.53,-0.29,-0.64,0.89
31.969,-0.52,-0.43,-0.60,0.91
31.979,-0.46,-0.60,-0.54,0.93
31.989,-0.36,-0.71,-0.52,0.95
31.999,-0.21,-0.72,-0.53,0.92
32.009,-0.07,-0.71,-0.52,0.88
32.020,0.00,-0.69,-0.50,0.85
32.029,0.01,-0.66,-0.50,0.83
32.040,-0.10,-0.62,-0.49,0.80
32.049,-0.27,-0.56,-0.47,0.78
32.059,-0.36,-0.53,-0.53,0.83
32.069,-0.34,-0.51,-0.57,0.83
32.080,-0.28,-0.50,-0.60,0.83
32.089,-0.18,-0.50,-0.60,0.80
32.100,-0.11,-0.49,-0.58,0.76
32.109,-0.04,-0.52,-0.52,0.73
32.120,0.03,-0.60,-0.40,0.72
32.129,0.05,-0.72,-0.36,0.81
32.140,0.06,-0.81,-0.33,0.88
32.150,-0.01,-0.83,-0.33,0.89
32.160,-0.09,-0.75,-0.34,0.83
32.170,-0.17,-0.65,-0.35,0.76
32.180,-0.28,-0.62,-0.36,0.77
32.190,-0.37,-0.60,-0.33,0.78
32.200,-0.34,-0.62,-0.27,0.76
32.210,-0.27,-0.69,-0.22,0.77
32.220,-0.16,-0.79,-0.22,0.84
32.230,-0.04,-0.85,-0.34,0.92
32.240,0.08,-0.95,-0.39,1.03
32.250,0.21,-0.90,-0.27,0.96
32.260,-0.01,-0.87,-0.22,0.89
32.270,-0.26,-0.86,-0.13,0.91
32.280,-0.30,-0.92,-0.09,0.97
32.290,-0.26,-1.00,-0.02,1.03
32.300,-0.15,-1.14,0.03,1.15
32.310,-0.08,-1.36,0.05,1.36
32.320,-0.05,-1.48,0.10,1.48
32.330,-0.04,-1.41,0.07,1.41
32.340,0.02,-1.19,-0.06,1.20
32.350,0.13,-0.96,-0.20,0.99
