time,ax,ay,az,atotal
0.000,-0.24,0.09,-0.15,0.30
0.010,-0.42,0.20,-0.39,0.60
0.020,-0.38,-0.07,-0.28,0.47
0.030,-0.33,0.02,-0.29,0.44
0.040,-0.19,-0.03,-0.34,0.39
0.050,-0.29,-0.08,-0.40,0.50
0.060,-0.44,-0.08,-0.38,0.59
0.070,-0.41,-0.06,-0.31,0.52
0.080,-0.35,-0.04,-0.33,0.48
0.090,-0.36,-0.05,-0.30,0.47
0.100,-0.26,-0.08,-0.22,0.35
0.110,-0.10,-0.09,-0.14,0.19
0.120,0.11,-0.11,-0.09,0.18
0.130,0.16,-0.17,-0.04,0.24
0.140,0.08,-0.21,-0.01,0.23
0.150,-0.02,-0.24,-0.06,0.25
0.160,-0.13,-0.25,-0.09,0.30
0.170,-0.17,-0.22,-0.05,0.29
0.180,-0.18,-0.17,-0.02,0.25
0.190,-0.19,-0.14,-0.01,0.23
0.200,-0.16,-0.17,0.03,0.24
0.210,-0.15,-0.16,0.09,0.24
0.220,-0.22,-0.23,0.08,0.33
0.230,-0.24,-0.25,0.11,0.36
0.240,-0.18,-0.26,0.08,0.33
0.250,-0.11,-0.28,0.07,0.31
0.260,-0.05,-0.23,0.11,0.25
0.270,-0.17,-0.12,0.18,0.28
0.280,-0.25,-0.02,0.20,0.32
0.290,-0.30,0.04,0.16,0.34
0.300,-0.28,0.04,0.05,0.29
0.310,-0.35,0.08,0.01,0.36
0.320,-0.42,0.17,0.13,0.47
0.330,-0.54,0.26,0.25,0.65
0.340,-0.63,0.35,0.42,0.83
0.350,-0.60,0.52,0.54,0.96
0.360,-0.52,0.55,0.57,0.94
0.370,-0.37,0.54,0.56,0.86
0.380,-0.17,0.48,0.65,0.82
0.390,-0.04,0.44,0.88,0.98
0.400,0.13,0.14,1.04,1.05
0.410,0.22,-0.07,1.02,1.05
0.420,0.15,-0.23,0.72,0.77
0.430,0.13,-0.30,0.43,0.55
0.440,0.11,-0.23,0.43,0.50
0.451,0.22,-0.20,0.28,0.41
0.461,0.53,-0.07,0.20,0.57
0.470,0.60,-0.04,0.33,0.68
0.480,0.47,0.03,0.32,0.57
0.490,0.31,0.06,0.27,0.42
0.500,0.20,0.04,0.17,0.27
0.510,0.19,0.01,0.12,0.23
0.520,0.33,0.04,0.18,0.37
0.530,0.54,0.13,0.31,0.64
0.540,0.45,0.33,0.43,0.71
0.550,0.32,0.54,0.43,0.76
0.560,0.20,0.63,0.45,0.80
0.570,0.03,0.73,0.50,0.89
0.580,-0.10,0.78,0.51,0.94
0.590,-0.01,0.93,0.29,0.97
0.600,-0.19,0.84,0.97,1.30
0.610,-0.17,0.34,1.10,1.16
0.620,-0.23,0.10,1.11,1.14
0.631,-0.30,0.17,1.32,1.36
0.641,-0.35,0.21,1.37,1.43
0.650,-0.24,0.03,1.38,1.40
0.660,-0.12,-0.28,1.30,1.34
0.671,-0.19,-0.33,1.19,1.25
0.680,-0.50,-0.29,1.09,1.24
0.691,-0.86,-0.33,1.01,1.37
0.701,-1.20,-0.17,0.88,1.50
0.710,-1.05,-0.02,1.21,1.60
0.721,-0.75,-0.26,1.40,1.61
0.731,-0.64,-0.35,1.46,1.63
0.741,-0.53,-0.28,1.49,1.61
0.751,-0.62,-0.19,1.45,1.58
0.761,-0.84,-0.04,1.37,1.61
0.771,-0.99,0.07,1.15,1.52
0.781,-1.16,0.01,1.00,1.53
0.791,-1.27,-0.02,1.05,1.65
0.801,-1.38,-0.03,0.99,1.69
0.811,-1.50,-0.05,0.74,1.67
0.821,-1.49,-0.01,0.66,1.63
0.831,-1.51,0.08,0.89,1.76
0.841,-1.53,0.07,1.10,1.88
0.851,-1.46,-0.09,1.25,1.92
0.861,-1.35,-0.38,1.36,1.95
0.871,-1.22,-0.68,1.48,2.03
0.881,-1.13,-0.89,1.50,2.08
0.891,-1.02,-0.98,1.32,1.94
0.901,-0.92,-0.89,1.06,1.66
0.911,-0.96,-0.82,1.13,1.70
0.921,-0.86,-0.79,1.28,1.74
0.931,-0.58,-0.72,1.24,1.55
0.941,-0.32,-0.77,1.08,1.37
0.951,-0.09,-0.76,1.19,1.42
0.961,0.18,-0.73,1.22,1.43
0.971,0.33,-0.63,1.24,1.43
0.981,0.49,-0.45,0.77,1.02
0.991,0.57,-0.16,0.25,0.64
1.001,0.63,0.21,0.52,0.84
1.011,0.77,0.33,1.03,1.33
1.021,1.08,0.21,1.02,1.50
1.031,1.38,0.06,1.02,1.72
1.041,1.40,0.01,1.14,1.80
1.051,1.09,0.08,1.17,1.60
1.061,0.64,0.24,1.18,1.36
1.071,0.24,0.41,1.36,1.44
1.081,0.11,0.67,1.57,1.71
1.091,0.08,1.03,1.73,2.02
1.101,0.21,1.29,1.71,2.15
1.111,0.39,1.29,1.70,2.17
1.121,0.51,1.40,1.97,2.47
1.131,1.15,1.23,1.68,2.38
1.141,1.48,1.14,1.61,2.46
1.151,1.82,1.07,1.40,2.53
1.161,2.25,1.07,1.51,2.91
1.171,2.62,0.98,1.70,3.28
1.181,2.84,0.76,2.10,3.62
1.191,2.99,0.58,2.69,4.07
1.201,2.82,0.47,2.66,3.91
1.211,2.11,0.47,2.59,3.37
1.221,0.92,0.69,1.98,2.29
1.231,-0.16,1.14,0.95,1.49
1.241,-0.73,1.55,0.10,1.72
1.251,-0.67,1.90,-0.88,2.20
1.261,-0.17,2.09,-1.53,2.59
1.271,0.56,1.95,-1.88,2.77
1.281,1.48,1.69,-1.92,2.95
1.291,2.37,1.29,-2.29,3.54
1.301,3.13,0.97,-2.32,4.01
1.311,3.20,0.64,-1.92,3.79
1.321,2.90,0.23,-1.85,3.44
1.331,2.45,-0.19,-1.89,3.10
1.341,2.02,-0.31,-1.88,2.78
1.351,1.74,-0.16,-1.71,2.44
1.361,1.39,0.02,-1.66,2.17
1.371,1.10,0.15,-1.43,1.81
1.381,0.99,0.45,-1.18,1.60
1.391,0.63,0.74,-1.09,1.46
1.401,0.04,0.34,-1.17,1.22
1.411,-0.18,-0.10,-0.93,0.95
1.421,-0.48,-0.52,-0.57,0.91
1.431,-1.02,-1.00,-0.60,1.55
1.441,-1.69,-1.19,-0.71,2.18
1.451,-2.38,-1.10,-0.83,2.75
1.461,-3.00,-0.72,-0.86,3.20
1.471,-3.48,-0.33,-0.77,3.58
1.481,-3.62,-0.10,-0.72,3.69
1.491,-3.59,-0.05,-0.85,3.69
1.501,-3.49,-0.12,-0.86,3.60
1.511,-3.49,-0.28,-0.81,3.59
1.521,-3.41,-0.43,-0.77,3.52
1.531,-3.28,-0.48,-0.70,3.39
1.541,-3.12,-0.51,-0.64,3.22
1.551,-2.98,-0.45,-0.51,3.06
1.561,-2.83,-0.38,-0.52,2.90
1.571,-2.33,-0.04,-0.40,2.37
1.581,-1.97,0.04,-0.24,1.99
1.591,-1.67,-0.19,-0.09,1.69
1.601,-1.41,-0.41,0.20,1.48
1.611,-1.37,-0.67,0.52,1.61
1.621,-1.34,-1.12,0.51,1.82
1.631,-1.25,-1.45,0.53,1.98
1.641,-1.22,-1.54,0.75,2.10
1.651,-1.21,-1.90,0.55,2.32
1.661,-0.99,-1.96,0.54,2.26
1.671,-0.61,-1.72,0.64,1.93
1.681,-0.19,-1.49,0.71,1.66
1.691,0.22,-1.11,0.90,1.45
1.701,0.42,-0.71,0.93,1.24
1.711,0.50,-0.22,0.94,1.09
1.721,0.39,0.14,0.96,1.04
1.731,0.14,0.04,0.87,0.88
1.741,0.11,-0.20,0.76,0.80
1.751,0.11,-0.33,0.76,0.83
1.761,0.11,-0.35,0.55,0.66
1.771,0.25,-0.35,0.26,0.50
1.781,0.35,-0.03,-0.04,0.36
1.791,0.45,0.40,-0.21,0.64
1.801,0.79,0.37,-0.64,1.08
1.811,1.67,0.35,-0.63,1.82
1.821,2.84,0.38,-0.24,2.87
1.831,3.81,0.42,0.21,3.84
1.841,4.45,0.71,0.57,4.54
1.851,4.79,1.26,0.80,5.02
1.861,4.86,1.01,0.56,5.00
1.871,4.92,0.10,0.08,4.92
1.881,5.08,-0.22,-0.29,5.09
1.891,4.69,-0.17,-1.00,4.80
1.901,3.83,0.45,-1.52,4.15
1.911,3.29,1.39,-1.50,3.88
1.921,2.84,2.11,-1.60,3.89
1.931,2.32,2.58,-1.69,3.86
1.941,1.94,2.46,-1.42,3.44
1.951,1.97,2.19,-0.94,3.09
1.961,2.09,1.55,-0.62,2.68
1.971,2.16,0.88,-0.24,2.35
1.981,1.66,0.77,-0.36,1.86
1.991,1.05,0.95,-0.63,1.55
2.001,1.18,1.06,-0.87,1.81
2.011,1.62,0.78,-0.29,1.82
2.021,1.51,0.61,-0.00,1.63
2.031,0.81,0.52,-0.10,0.97
2.041,-0.19,0.25,-0.15,0.34
2.052,-1.07,-0.05,-0.32,1.12
2.062,-1.87,-0.31,-0.65,2.00
2.071,-2.75,-0.51,-0.68,2.88
2.081,-3.44,-0.58,-0.71,3.56
2.091,-3.88,-0.50,-0.84,4.00
2.101,-4.25,-0.41,-0.82,4.35
2.111,-4.65,-0.30,-0.68,4.71
2.122,-4.87,-0.25,-0.43,4.89
2.131,-4.82,-0.32,-0.26,4.84
2.141,-4.71,-0.46,-0.31,4.75
2.151,-4.54,-0.52,-0.37,4.58
2.162,-4.31,-0.56,-0.31,4.36
2.171,-3.96,-0.79,-0.40,4.06
2.182,-3.62,-0.90,-0.39,3.75
2.191,-3.16,-0.98,-0.37,3.33
2.201,-2.72,-0.92,-0.44,2.91
2.211,-2.48,-0.71,-0.46,2.62
2.222,-2.27,-0.34,-0.55,2.36
2.232,-2.06,0.22,-0.60,2.16
2.242,-1.77,0.82,-0.61,2.04
2.251,-1.50,1.28,-0.64,2.07
2.262,-1.16,1.81,-0.74,2.27
2.272,-0.79,2.44,-0.70,2.66
2.282,-0.60,2.73,-0.32,2.81
2.291,-0.82,2.33,0.03,2.47
2.301,-0.57,1.69,0.49,1.85
2.311,0.13,1.13,0.96,1.49
2.322,0.63,0.71,1.42,1.71
2.332,0.73,0.40,1.82,2.00
2.342,0.68,0.17,2.28,2.38
2.352,0.71,-0.14,2.54,2.64
2.362,0.72,-0.58,2.66,2.82
2.372,0.89,-0.78,2.91,3.15
2.382,1.00,-0.76,3.01,3.26
2.392,1.15,-0.47,2.49,2.78
2.402,1.14,-0.17,2.00,2.31
2.412,1.08,0.06,1.72,2.04
2.422,1.46,0.39,0.77,1.70
2.432,2.55,0.87,-0.15,2.70
2.442,3.93,1.86,0.32,4.35
2.452,4.65,2.54,1.67,5.55
2.462,4.63,1.91,1.55,5.24
2.472,4.93,0.76,1.72,5.28
2.482,5.11,0.38,0.72,5.17
2.492,4.01,0.58,-0.63,4.10
2.502,2.03,1.28,-1.63,2.90
2.512,0.09,1.73,-2.06,2.69
2.522,-0.91,1.53,-2.37,2.97
2.532,-0.79,1.24,-2.63,3.01
2.542,0.10,1.06,-2.43,2.65
2.552,1.18,0.76,-2.34,2.73
2.562,2.16,0.42,-2.30,3.18
2.572,2.67,0.31,-1.84,3.26
2.582,2.42,0.18,-1.14,2.69
2.592,1.76,-0.02,-0.84,1.95
2.602,0.98,0.05,-0.76,1.24
2.612,0.07,0.13,-0.79,0.81
2.622,-0.83,0.07,-0.84,1.18
2.632,-1.54,-0.12,-0.67,1.68
2.642,-2.18,-0.26,-0.54,2.26
2.652,-2.76,-0.39,-0.45,2.82
2.662,-3.39,-0.62,-0.48,3.48
2.672,-3.90,-0.84,-0.72,4.06
2.682,-4.18,-0.96,-0.77,4.36
2.692,-4.38,-1.16,-0.86,4.61
2.702,-4.46,-1.30,-1.01,4.75
2.712,-4.32,-1.16,-1.27,4.65
2.722,-4.09,-0.95,-1.27,4.39
2.732,-3.74,-0.72,-1.36,4.04
2.742,-3.36,-0.51,-1.35,3.66
2.752,-3.12,-0.15,-1.14,3.32
2.762,-2.77,-0.16,-1.02,2.96
2.772,-2.46,-0.18,-1.08,2.70
2.782,-2.09,-0.09,-0.95,2.30
2.792,-1.65,-0.04,-0.75,1.82
2.802,-1.23,-0.06,-0.64,1.39
2.812,-1.03,-0.07,-0.49,1.14
2.822,-1.09,-0.12,0.09,1.10
2.832,-1.02,-0.22,0.04,1.04
2.842,-0.86,-0.38,0.09,0.95
2.852,-0.81,-0.69,0.12,1.07
2.862,-0.73,-1.02,0.27,1.29
2.872,-0.54,-1.16,0.58,1.40
2.882,-0.27,-1.23,0.73,1.45
2.892,-0.29,-1.19,0.94,1.55
2.902,-0.49,-1.08,0.88,1.48
2.912,-0.49,-0.90,0.80,1.30
2.922,-0.37,-0.82,0.78,1.19
2.932,-0.25,-0.74,0.98,1.25
2.942,-0.08,-0.61,1.26,1.40
2.952,0.11,-0.52,1.26,1.37
2.962,0.21,-0.42,1.30,1.39
2.972,0.25,-0.33,1.43,1.49
2.982,0.29,-0.43,1.57,1.65
2.992,0.37,-0.63,1.59,1.74
3.002,0.54,-0.75,1.50,1.76
3.012,0.78,-0.61,1.58,1.87
3.022,0.98,-0.40,1.61,1.92
3.032,1.58,-0.30,1.38,2.12
3.042,2.48,-0.10,1.34,2.83
3.052,3.28,0.33,1.14,3.49
3.062,3.77,0.66,0.90,3.93
3.072,4.05,0.01,0.43,4.08
3.082,4.48,-0.76,-0.06,4.54
3.092,5.31,-0.50,0.07,5.33
3.102,5.44,0.53,0.13,5.47
3.112,5.04,1.50,-0.74,5.31
3.122,4.80,2.14,-1.59,5.49
3.132,4.11,2.26,-1.83,5.04
3.142,3.00,1.74,-2.20,4.11
3.152,2.21,1.23,-1.97,3.21
3.162,2.15,0.76,-1.39,2.67
3.172,2.73,0.31,-0.71,2.83
3.182,3.47,-0.03,0.05,3.47
3.192,3.89,0.38,0.72,3.97
3.202,2.62,0.77,0.56,2.79
3.212,1.86,0.91,0.16,2.08
3.222,1.40,0.69,0.21,1.57
3.232,0.94,0.42,0.19,1.05
3.242,0.10,0.13,0.28,0.33
3.252,-0.62,-0.07,0.35,0.71
3.262,-1.07,-0.20,0.25,1.12
3.272,-1.62,-0.26,0.09,1.64
3.282,-2.41,-0.37,-0.13,2.44
3.292,-3.15,-0.54,-0.18,3.21
3.302,-3.44,-0.73,-0.63,3.57
3.312,-3.54,-0.78,-0.88,3.73
3.322,-3.82,-0.77,-0.73,3.96
3.332,-4.10,-0.66,-0.58,4.20
3.342,-4.06,-0.50,-0.58,4.13
3.352,-3.98,-0.50,-0.61,4.06
3.362,-3.97,-0.55,-0.63,4.06
3.372,-3.82,-0.40,-0.66,3.90
3.382,-3.70,-0.26,-0.68,3.78
3.392,-3.69,-0.33,-0.75,3.78
3.402,-3.62,-0.35,-0.77,3.71
3.412,-3.52,-0.44,-0.72,3.62
3.422,-3.35,-0.45,-0.64,3.44
3.432,-3.11,-0.26,-0.57,3.17
3.442,-2.92,-0.05,-0.58,2.97
3.452,-2.80,0.14,-0.56,2.86
3.462,-2.80,0.38,-0.58,2.88
3.472,-2.73,0.59,-0.68,2.88
3.482,-2.52,0.75,-0.66,2.71
3.492,-2.10,0.76,-0.57,2.31
3.502,-1.75,0.94,-0.19,2.00
3.512,-1.49,1.08,0.33,1.87
3.522,-1.08,0.94,0.62,1.56
3.532,-0.65,0.84,0.99,1.45
3.542,-0.19,0.61,1.28,1.43
3.552,0.41,0.40,1.62,1.72
3.562,0.95,0.16,1.91,2.14
3.573,1.41,0.16,2.35,2.74
3.582,1.39,0.01,2.10,2.52
3.592,1.13,-0.29,1.99,2.31
3.603,1.10,-0.38,2.40,2.66
3.612,1.45,-0.45,3.01,3.38
3.622,1.97,-0.54,3.24,3.83
3.632,2.11,-0.65,2.73,3.51
3.642,2.26,-0.67,1.92,3.04
3.652,2.30,-0.82,1.30,2.77
3.662,2.77,-0.18,-0.08,2.77
3.673,4.00,1.50,-1.01,4.39
3.682,4.95,2.90,-0.18,5.74
3.692,5.07,2.87,1.04,5.92
3.703,5.07,1.52,2.11,5.70
3.713,4.29,-0.37,2.70,5.08
3.723,2.90,-1.63,1.31,3.58
3.733,1.22,-1.28,-0.50,1.84
3.743,-0.47,0.23,-1.43,1.52
3.753,-1.59,1.23,-2.06,2.88
3.762,-1.37,1.37,-2.57,3.22
3.773,-0.21,1.15,-2.36,2.64
3.783,0.96,0.87,-2.12,2.49
3.793,1.92,0.84,-1.78,2.76
3.803,2.48,1.04,-1.27,2.98
3.813,2.52,0.93,-1.00,2.86
3.823,2.25,0.79,-1.03,2.60
3.833,1.51,0.74,-0.86,1.89
3.843,0.53,0.56,-0.86,1.16
3.853,-0.44,0.40,-0.78,0.98
3.863,-1.34,0.23,-0.73,1.54
3.873,-2.09,0.05,-0.77,2.23
3.883,-2.68,-0.13,-0.84,2.81
3.893,-3.23,-0.28,-1.05,3.41
3.903,-3.59,-0.35,-1.38,3.86
3.913,-3.73,-0.50,-1.56,4.08
3.923,-3.81,-0.58,-1.60,4.17
3.933,-3.65,-0.56,-1.63,4.04
3.943,-3.53,-0.57,-1.43,3.85
3.953,-3.27,-0.45,-1.36,3.57
3.963,-2.95,-0.31,-1.16,3.18
3.973,-2.77,-0.20,-1.14,3.00
3.983,-2.77,-0.02,-1.36,3.08
3.993,-2.91,0.19,-1.33,3.20
4.003,-3.03,0.21,-0.90,3.17
4.013,-3.08,-0.01,-1.06,3.26
4.023,-2.98,-0.20,-1.05,3.17
4.033,-2.81,-0.32,-0.24,2.84
4.043,-2.61,-0.35,-0.56,2.69
4.053,-2.22,-0.42,-0.66,2.35
4.063,-1.96,-0.75,-0.32,2.13
4.073,-1.59,-0.89,-0.25,1.84
4.083,-1.01,-0.85,-0.06,1.32
4.093,-0.49,-0.89,0.09,1.02
4.103,-0.20,-1.01,0.35,1.09
4.113,0.17,-0.85,0.61,1.06
4.123,0.48,-0.73,0.89,1.25
4.133,0.72,-0.78,1.00,1.46
4.143,0.98,-0.76,1.05,1.62
4.153,1.11,-0.74,1.18,1.78
4.163,0.90,-0.79,1.34,1.80
4.173,0.61,-0.83,1.59,1.89
4.183,0.47,-0.87,1.82,2.07
4.193,0.55,-1.05,1.97,2.30
4.203,0.84,-1.19,2.04,2.50
4.213,1.36,-1.19,2.10,2.77
4.223,1.68,-0.89,2.12,2.85
4.233,1.58,-0.27,1.97,2.54
4.243,1.25,0.26,1.39,1.89
4.253,1.29,1.05,0.98,1.93
4.263,1.49,1.69,0.64,2.34
4.273,1.75,1.97,0.53,2.69
4.283,2.11,1.36,0.36,2.54
4.293,2.81,0.65,0.45,2.92
4.303,3.59,0.21,0.57,3.64
4.313,4.03,0.17,0.51,4.07
4.323,4.16,0.72,0.13,4.22
4.333,4.07,1.05,-0.80,4.28
4.343,3.67,1.16,-1.88,4.28
4.353,3.18,0.72,-2.83,4.32
4.363,3.12,0.19,-3.24,4.50
4.373,3.09,0.27,-2.82,4.19
4.383,3.18,0.80,-1.51,3.62
4.393,3.43,1.25,-0.45,3.68
4.403,3.49,1.72,0.21,3.90
4.413,3.20,1.87,0.66,3.77
4.423,2.71,1.59,0.45,3.17
4.433,2.06,1.06,0.36,2.35
4.443,1.43,0.37,0.38,1.53
4.453,1.06,-0.17,0.31,1.12
4.463,0.22,-0.41,0.35,0.58
4.473,-0.73,-0.51,0.37,0.96
4.483,-1.44,-0.48,0.33,1.55
4.493,-2.26,-0.62,-0.00,2.35
4.503,-3.05,-0.78,-0.16,3.15
4.513,-3.37,-0.59,-0.54,3.46
4.523,-3.45,-0.39,-0.66,3.54
4.533,-3.78,-0.13,-0.62,3.83
4.543,-4.03,0.15,-0.73,4.10
4.553,-3.96,0.42,-0.58,4.03
4.563,-3.81,0.31,-0.54,3.86
4.573,-3.77,-0.03,-0.57,3.81
4.583,-3.80,-0.40,-0.58,3.87
4.593,-3.92,-0.80,-0.58,4.04
4.603,-4.12,-1.14,-0.50,4.30
4.613,-4.17,-1.44,-0.36,4.42
4.623,-4.04,-1.52,-0.41,4.33
4.633,-3.77,-1.35,-0.55,4.04
4.643,-3.46,-1.10,-0.55,3.68
4.653,-3.14,-0.69,-0.48,3.25
4.663,-2.69,-0.26,-0.49,2.75
4.673,-2.13,0.17,-0.61,2.23
4.683,-1.72,0.65,-0.55,1.92
4.693,-1.35,1.21,-0.37,1.85
4.703,-1.04,1.66,-0.38,2.00
4.713,-0.98,1.82,-0.63,2.16
4.723,-0.70,1.90,-0.95,2.24
4.733,-0.35,1.98,-0.90,2.21
4.743,-0.03,2.08,-0.53,2.14
4.753,0.43,2.07,-0.09,2.11
4.763,0.83,1.92,0.41,2.13
4.773,1.07,1.53,0.97,2.10
4.783,1.24,0.93,1.50,2.16
4.793,1.22,0.41,2.04,2.41
4.803,1.14,-0.13,2.57,2.82
4.813,1.10,-0.54,2.90,3.15
4.823,1.22,-0.89,3.17,3.51
4.833,1.39,-1.11,3.58,3.99
4.843,1.61,-1.09,3.91,4.36
4.853,1.80,-0.70,3.66,4.14
4.863,1.72,-0.06,2.92,3.39
4.873,1.23,0.41,1.38,1.89
4.883,0.78,0.58,-0.82,1.27
4.893,1.75,1.69,-0.87,2.58
4.903,3.61,3.45,0.78,5.05
4.913,4.36,3.61,1.18,5.78
4.923,4.93,1.84,3.21,6.16
4.933,5.09,-0.58,3.21,6.04
4.943,3.89,-2.71,1.55,4.98
4.953,2.20,-2.85,-0.57,3.64
4.963,-0.01,-1.35,-1.48,2.01
4.973,-1.73,-0.12,-2.13,2.75
4.983,-1.88,0.17,-2.70,3.29
4.993,-0.58,0.16,-2.58,2.65
5.003,0.66,0.06,-2.24,2.34
5.013,1.46,-0.02,-1.90,2.40
5.023,2.09,0.09,-1.42,2.53
5.033,2.46,0.16,-1.10,2.70
5.043,2.29,0.37,-1.01,2.53
5.053,1.31,0.51,-1.09,1.78
5.063,0.18,0.62,-1.24,1.40
5.073,-0.80,0.64,-1.11,1.52
5.084,-1.72,0.43,-1.01,2.04
5.093,-2.36,0.10,-1.00,2.56
5.103,-2.84,-0.25,-1.14,3.07
5.113,-3.19,-0.40,-1.19,3.42
5.123,-3.41,-0.43,-1.13,3.62
5.133,-3.39,-0.55,-1.14,3.62
5.143,-3.24,-0.68,-1.07,3.47
5.153,-3.03,-0.79,-1.27,3.38
5.163,-2.89,-0.85,-1.35,3.30
5.174,-2.91,-0.49,-1.49,3.31
5.183,-3.03,-0.35,-1.50,3.40
5.193,-3.14,-0.23,-1.56,3.51
5.203,-3.28,-0.06,-1.15,3.47
5.213,-3.35,-0.17,-1.30,3.60
5.224,-3.14,-0.17,-1.39,3.44
5.233,-2.69,-0.08,-1.42,3.04
5.244,-2.34,-0.18,-0.98,2.54
5.254,-1.72,-0.14,-0.83,1.92
5.263,-1.04,-0.25,-0.94,1.42
5.274,-0.73,-0.44,-0.75,1.13
5.283,-0.40,-0.58,-0.39,0.80
5.294,0.14,-0.60,-0.19,0.64
5.304,0.63,-0.56,-0.19,0.86
5.313,0.70,-0.35,-0.16,0.79
5.324,0.31,-0.25,0.01,0.39
5.334,-0.27,-0.34,0.07,0.44
5.344,-0.67,-0.39,0.25,0.82
5.354,-0.88,-0.48,0.39,1.08
5.364,-0.87,-0.57,0.61,1.21
5.374,-0.65,-0.69,0.91,1.32
5.384,-0.46,-0.98,1.09,1.54
5.394,-0.27,-1.15,1.27,1.73
5.404,-0.06,-1.16,1.49,1.88
5.414,-0.03,-1.02,1.75,2.03
5.424,-0.03,-0.95,1.98,2.20
5.434,0.05,-1.04,2.16,2.40
5.444,0.12,-1.28,2.36,2.69
5.454,0.16,-1.55,2.43,2.89
5.464,0.28,-1.57,2.05,2.60
5.474,0.50,-1.22,1.69,2.15
5.484,0.78,-0.78,1.34,1.74
5.494,1.28,-0.20,0.91,1.58
5.504,2.00,0.45,0.61,2.14
5.514,2.60,1.00,0.23,2.79
5.524,2.74,1.48,0.05,3.12
5.534,3.08,1.42,0.05,3.39
5.544,3.68,0.60,0.04,3.73
5.554,3.66,0.21,0.18,3.67
5.564,3.71,0.89,0.56,3.86
5.574,4.19,1.41,0.52,4.46
5.584,4.16,1.69,0.02,4.49
5.594,3.68,1.37,-0.86,4.02
5.604,3.16,0.77,-1.61,3.63
5.614,2.43,0.07,-1.84,3.04
5.624,1.90,-0.35,-1.47,2.43
5.634,2.09,-0.28,-0.87,2.28
5.644,2.86,0.06,-0.08,2.86
5.654,3.40,0.54,0.44,3.47
5.664,3.20,0.85,0.68,3.38
5.674,2.43,0.79,0.76,2.67
5.684,1.41,0.43,0.59,1.59
5.694,0.67,0.16,0.06,0.69
5.704,-0.04,0.00,-0.09,0.10
5.714,-0.81,-0.09,-0.11,0.82
5.724,-1.15,-0.04,-0.20,1.17
5.734,-1.36,-0.02,-0.28,1.38
5.744,-1.48,-0.03,-0.36,1.53
5.754,-1.61,-0.04,-0.42,1.66
5.764,-1.97,-0.05,-0.44,2.02
5.774,-2.33,-0.17,-0.41,2.37
5.784,-2.40,-0.21,-0.41,2.45
5.794,-2.22,-0.13,-0.80,2.36
5.804,-2.25,0.09,-0.87,2.41
5.814,-2.46,0.20,-0.69,2.56
5.824,-2.63,0.16,-0.73,2.74
5.834,-2.88,0.08,-0.64,2.95
5.844,-3.10,-0.13,-0.67,3.18
5.854,-3.27,-0.36,-0.72,3.37
5.864,-3.40,-0.39,-0.73,3.50
5.874,-3.38,-0.35,-0.85,3.50
5.884,-3.33,-0.20,-0.84,3.44
5.894,-3.22,0.01,-0.83,3.32
5.904,-3.03,0.11,-0.84,3.14
5.914,-2.75,0.23,-0.77,2.86
5.924,-2.46,0.33,-0.75,2.60
5.934,-2.26,0.34,-0.73,2.40
5.944,-2.01,0.36,-0.66,2.14
5.954,-1.75,0.35,-0.59,1.88
5.964,-1.53,0.38,-0.44,1.63
5.974,-1.44,0.44,-0.36,1.54
5.984,-1.35,0.50,-0.37,1.49
5.994,-1.22,0.58,-0.34,1.39
6.004,-1.27,0.77,-0.10,1.48
6.014,-1.32,0.94,0.19,1.63
6.024,-1.18,0.90,0.20,1.50
6.034,-0.82,0.94,0.26,1.27
6.044,-0.39,1.03,0.51,1.22
6.054,-0.08,0.96,0.77,1.23
6.064,0.15,0.78,1.08,1.35
6.074,0.25,0.57,1.50,1.62
6.084,0.21,0.29,1.85,1.88
6.094,0.31,-0.01,2.11,2.13
6.104,0.63,-0.41,2.19,2.31
6.114,1.16,-0.72,2.20,2.59
6.124,1.66,-0.97,2.46,3.12
6.134,2.12,-1.17,2.80,3.70
6.144,2.45,-1.19,2.91,3.99
6.154,2.43,-1.11,2.42,3.61
6.164,1.99,-1.05,1.24,2.56
6.174,1.50,-1.01,0.35,1.85
6.184,1.77,-0.10,0.08,1.77
6.194,3.02,1.42,-0.07,3.34
6.204,4.05,2.40,0.16,4.71
6.214,4.77,2.41,1.16,5.47
6.224,5.31,1.39,2.12,5.89
6.234,5.09,-0.09,2.04,5.48
6.244,3.70,-0.95,1.41,4.08
6.254,1.36,-0.74,0.15,1.55
6.264,-0.96,0.40,-0.94,1.40
6.274,-2.50,1.41,-1.27,3.14
6.284,-2.63,1.64,-1.34,3.38
6.294,-1.47,1.09,-1.26,2.22
6.304,0.29,0.32,-1.15,1.23
6.314,1.82,-0.19,-1.04,2.11
6.324,2.71,-0.30,-1.09,2.94
6.334,2.89,-0.08,-0.98,3.06
6.344,2.33,0.23,-0.86,2.49
6.354,1.21,0.44,-0.81,1.52
6.364,0.18,0.54,-0.73,0.92
6.374,-0.44,0.67,-0.53,0.96
6.384,-0.84,0.76,-0.42,1.21
6.394,-1.20,0.70,-0.33,1.43
6.404,-1.58,0.52,-0.45,1.72
6.414,-2.03,0.27,-0.38,2.09
6.424,-2.41,0.09,-0.44,2.45
6.434,-2.73,-0.08,-0.66,2.81
6.444,-2.93,-0.21,-0.78,3.04
6.454,-3.04,-0.30,-0.79,3.16
6.464,-3.03,-0.41,-0.85,3.18
6.474,-3.08,-0.51,-1.02,3.29
6.484,-3.07,-0.43,-0.81,3.20
6.494,-3.01,-0.32,-1.16,3.25
6.504,-2.96,-0.07,-1.59,3.36
6.514,-2.86,0.41,-1.52,3.27
6.524,-2.74,0.65,-1.27,3.09
6.534,-2.61,0.68,-1.05,2.89
6.544,-2.40,0.57,-1.02,2.67
6.554,-2.17,0.17,-1.04,2.41
6.564,-1.82,-0.19,-0.78,1.99
6.574,-1.38,-0.49,-0.89,1.71
6.584,-0.94,-0.57,-0.52,1.22
6.594,-0.65,-0.60,0.01,0.88
6.604,-0.41,-0.59,0.28,0.77
6.614,-0.19,-0.47,0.18,0.53
6.624,-0.19,-0.40,0.13,0.46
6.634,-0.31,-0.54,0.22,0.66
6.644,-0.19,-0.62,0.27,0.71
6.654,0.11,-0.68,0.41,0.80
6.664,0.49,-0.66,0.53,0.98
6.674,0.72,-0.69,0.56,1.14
6.684,0.76,-0.62,0.46,1.08
6.694,0.49,-0.33,0.43,0.73
6.705,0.03,-0.06,0.28,0.29
6.714,-0.40,0.11,0.03,0.42
6.724,-0.64,0.31,0.08,0.72
6.734,-0.75,0.25,0.09,0.79
6.744,-0.67,0.13,0.03,0.68
6.755,-0.55,0.10,0.02,0.56
6.764,-0.51,0.07,0.19,0.55
6.774,-0.75,-0.06,0.48,0.89
6.784,-0.88,-0.29,0.59,1.10
6.794,-0.81,-0.60,0.94,1.38
6.805,-0.55,-0.93,1.29,1.68
6.815,-0.10,-1.35,1.69,2.16
6.825,0.42,-1.89,2.02,2.80
6.835,1.01,-2.29,2.23,3.36
6.845,1.55,-2.39,2.16,3.57
6.855,1.84,-1.98,2.00,3.36
6.865,1.69,-1.22,1.91,2.83
6.875,1.31,-0.57,1.80,2.30
6.885,1.30,-0.30,0.78,1.55
6.895,2.07,0.47,-0.51,2.19
6.905,2.28,1.57,-0.24,2.78
6.915,2.14,1.41,-0.16,2.56
6.925,2.85,1.19,0.14,3.10
6.935,3.11,2.21,0.56,3.85
6.945,2.85,3.40,0.77,4.51
6.955,2.73,2.80,0.64,3.96
6.965,2.31,1.62,0.38,2.84
6.975,1.94,0.68,-0.07,2.06
6.985,2.23,0.13,-0.34,2.26
6.995,2.69,-0.22,-0.14,2.70
7.005,3.07,-0.28,0.25,3.09
7.015,3.30,-0.07,0.52,3.34
7.025,3.23,0.15,0.68,3.30
7.035,2.75,0.32,0.84,2.89
7.045,1.97,0.36,0.78,2.15
7.055,1.01,0.26,0.65,1.23
7.065,0.08,0.11,0.40,0.42
7.075,-0.74,0.05,0.07,0.74
7.085,-1.30,0.23,-0.22,1.34
7.095,-1.71,0.47,-0.40,1.81
7.105,-1.96,0.75,-0.37,2.14
7.115,-2.21,0.81,-0.22,2.37
7.125,-2.27,0.67,-0.26,2.39
7.135,-2.42,0.56,-0.43,2.52
7.145,-2.84,0.61,-0.54,2.96
7.155,-3.24,0.64,-0.49,3.34
7.165,-3.39,0.65,-0.59,3.50
7.175,-3.42,0.69,-0.70,3.55
7.185,-3.52,0.61,-0.80,3.67
7.195,-3.59,0.57,-0.89,3.74
7.205,-3.58,0.55,-1.04,3.77
7.215,-3.60,0.48,-1.06,3.78
7.225,-3.52,0.31,-1.06,3.69
7.235,-3.32,0.23,-1.09,3.51
7.245,-3.15,0.38,-0.98,3.32
7.255,-2.79,0.67,-1.10,3.07
7.265,-2.38,0.88,-0.93,2.70
7.275,-1.90,1.07,-0.70,2.29
7.285,-1.37,1.06,-0.63,1.84
7.295,-0.87,0.93,-0.57,1.39
7.305,-0.59,0.82,-0.52,1.14
7.315,-0.48,0.73,-0.38,0.95
7.325,-0.47,0.69,-0.30,0.89
7.335,-0.45,0.66,-0.17,0.82
7.345,-0.40,0.65,-0.02,0.77
7.355,-0.28,0.73,0.12,0.79
7.365,-0.18,0.74,0.14,0.78
7.375,-0.20,0.75,0.15,0.79
7.385,-0.26,0.73,0.09,0.78
7.395,-0.39,0.80,0.04,0.90
7.405,-0.60,0.89,0.10,1.07
7.415,-0.74,0.98,0.16,1.24
7.425,-0.93,0.96,0.22,1.36
7.435,-1.07,0.91,0.28,1.43
7.445,-1.12,0.87,0.34,1.45
7.455,-1.19,0.85,0.37,1.51
7.465,-1.33,0.89,0.37,1.64
7.475,-1.57,0.93,0.49,1.89
7.485,-1.71,0.90,0.55,2.01
7.495,-1.77,0.79,0.47,1.99
7.505,-1.74,0.70,0.48,1.94
7.515,-1.64,0.61,0.66,1.87
7.525,-1.47,0.47,0.92,1.80
7.535,-1.10,0.15,1.15,1.60
7.545,-0.59,-0.10,1.41,1.53
7.555,-0.06,-0.22,1.60,1.61
7.565,0.30,-0.25,1.61,1.66
7.575,0.44,-0.30,1.74,1.82
7.585,0.49,-0.33,1.95,2.04
7.595,0.60,-0.34,2.11,2.22
7.605,0.70,-0.19,2.20,2.31
7.615,0.65,0.25,2.20,2.31
7.625,0.50,0.87,2.22,2.43
7.635,0.17,1.13,2.62,2.86
7.645,-0.04,0.84,2.74,2.87
7.655,-0.06,0.27,2.55,2.56
7.665,-0.11,-0.11,2.33,2.34
7.675,-0.25,-0.18,2.13,2.16
7.685,-0.44,-0.17,2.15,2.20
7.695,-0.71,-0.25,2.15,2.28
7.705,-0.65,-0.32,2.02,2.15
7.715,-0.65,-0.36,2.26,2.38
7.725,-0.88,-0.62,2.54,2.76
7.735,-0.78,-0.84,1.87,2.20
7.745,0.79,0.16,0.04,0.81
7.755,2.87,2.21,-1.17,3.81
7.765,3.95,3.52,-0.19,5.30
7.775,4.03,3.56,1.47,5.58
7.785,2.77,2.77,0.27,3.92
7.795,1.37,2.33,-1.99,3.35
7.805,0.03,2.41,-2.11,3.20
7.815,-0.85,2.28,-1.12,2.68
7.825,-0.70,1.84,-1.60,2.54
7.835,-0.59,1.59,-2.33,2.88
7.845,-1.34,1.32,-2.39,3.04
7.855,-2.24,0.94,-2.10,3.21
7.865,-2.52,0.37,-1.85,3.14
7.875,-2.01,-0.23,-1.68,2.63
7.885,-0.99,-0.42,-1.33,1.71
7.895,-0.10,-0.09,-1.01,1.02
7.905,0.57,0.74,-0.98,1.35
7.915,1.14,1.71,-1.09,2.33
7.925,1.46,2.46,-1.10,3.07
7.935,1.35,3.03,-1.41,3.61
7.945,1.04,3.49,-1.68,4.01
7.955,0.49,3.54,-1.53,3.89
7.965,-0.06,2.92,-1.27,3.18
7.975,-0.44,1.85,-0.77,2.05
7.985,-0.61,0.68,-0.49,1.04
7.995,-0.78,-0.20,-0.62,1.01
8.005,-0.84,-0.60,-0.66,1.23
8.015,-0.85,-0.53,-0.76,1.26
8.025,-0.77,-0.16,-0.69,1.05
8.035,-0.66,0.27,-0.64,0.96
8.045,-0.62,0.66,-0.53,1.05
8.055,-0.70,0.81,-0.29,1.11
8.065,-0.55,0.84,0.07,1.01
8.075,-0.31,0.63,0.45,0.83
8.085,-0.18,0.27,0.61,0.70
8.095,-0.21,-0.17,0.92,0.96
8.105,-0.40,-0.62,1.27,1.47
8.115,-0.66,-1.02,1.58,1.99
8.125,-1.13,-1.52,1.39,2.35
8.135,-1.38,-1.78,1.42,2.66
8.145,-1.52,-1.61,1.56,2.71
8.155,-1.66,-1.38,1.48,2.62
8.165,-1.52,-1.12,1.00,2.13
8.175,-1.33,-0.55,0.80,1.65
8.186,-1.04,0.06,0.83,1.33
8.195,-0.63,0.48,1.08,1.34
8.206,-0.36,0.74,1.23,1.48
8.216,-0.48,0.91,1.40,1.74
8.225,-0.84,0.98,1.44,1.94
8.235,-1.08,0.86,1.20,1.83
8.245,-1.01,0.50,0.96,1.48
8.255,-0.70,-0.01,1.11,1.31
8.265,-0.48,-0.75,1.53,1.77
8.276,-0.38,-1.38,1.64,2.17
8.286,-0.37,-1.35,1.58,2.11
8.295,-0.37,-0.97,1.58,1.89
8.305,-0.25,-0.55,1.92,2.01
8.315,-0.21,-0.63,1.91,2.02
8.326,-0.16,-0.81,1.60,1.80
8.336,-0.27,-0.82,1.39,1.63
8.345,-0.41,-0.79,1.37,1.63
8.356,-0.28,-0.54,1.45,1.57
8.366,0.20,-0.04,1.38,1.39
8.376,1.20,0.89,1.24,1.94
8.386,1.87,2.02,1.36,3.07
8.396,1.83,2.30,1.28,3.21
8.406,1.98,1.59,0.53,2.59
8.416,2.38,1.21,0.01,2.67
8.426,2.26,1.33,-0.57,2.68
8.436,1.74,1.47,-1.18,2.56
8.446,1.31,1.76,-1.93,2.92
8.456,1.02,2.14,-2.60,3.52
8.466,0.86,2.27,-2.96,3.83
8.476,0.73,2.31,-3.20,4.02
8.486,0.27,2.49,-3.25,4.10
8.495,-0.59,2.57,-2.92,3.94
8.506,-1.46,2.63,-2.98,4.23
8.516,-2.29,2.79,-2.65,4.48
8.526,-2.45,2.77,-1.91,4.16
8.536,-1.92,2.35,-1.32,3.31
8.546,-1.09,1.84,-0.65,2.23
8.556,-0.16,1.30,0.10,1.31
8.566,0.59,0.67,0.52,1.04
8.576,1.00,-0.14,0.57,1.16
8.586,1.41,-0.72,0.68,1.72
8.596,1.93,-0.83,0.73,2.23
8.606,2.00,-0.81,0.72,2.27
8.616,1.66,-0.55,0.69,1.87
8.626,1.43,0.16,0.83,1.66
8.636,0.91,0.84,0.62,1.38
8.646,0.26,1.35,0.19,1.39
8.656,-0.44,1.64,0.05,1.70
8.666,-1.12,1.68,-0.04,2.02
8.676,-1.58,1.53,-0.06,2.20
8.686,-1.77,1.33,-0.11,2.21
8.696,-1.87,1.16,-0.12,2.20
8.706,-1.91,1.08,-0.16,2.20
8.716,-1.82,1.14,-0.16,2.16
8.726,-1.73,1.20,-0.04,2.10
8.736,-1.60,1.24,0.05,2.02
8.746,-1.47,1.20,0.14,1.90
8.756,-1.34,1.04,0.24,1.71
8.766,-1.30,0.84,0.42,1.60
8.776,-1.31,0.66,0.57,1.57
8.786,-1.29,0.45,0.50,1.46
8.796,-1.31,0.35,0.51,1.45
8.806,-1.37,0.36,0.56,1.52
8.816,-1.46,0.39,0.63,1.64
8.826,-1.49,0.43,0.90,1.79
8.836,-1.44,0.40,1.15,1.88
8.846,-1.33,0.34,1.36,1.93
8.856,-1.34,0.30,1.61,2.12
8.866,-1.36,0.17,1.85,2.30
8.876,-1.29,-0.04,2.16,2.52
8.886,-1.06,-0.26,2.48,2.71
8.896,-0.79,-0.48,2.62,2.78
8.906,-0.57,-0.67,2.63,2.77
8.916,-0.40,-0.66,2.53,2.64
8.926,-0.25,-0.24,2.39,2.42
8.936,-0.23,0.22,2.28,2.30
8.946,-0.07,0.40,2.42,2.46
8.956,0.50,0.34,2.75,2.82
8.966,1.24,0.16,3.03,3.28
8.976,1.81,-0.14,3.16,3.65
8.986,2.06,-0.42,3.12,3.76
8.996,1.90,-0.54,2.99,3.58
9.006,1.46,-0.21,2.99,3.33
9.016,0.80,0.33,3.21,3.32
9.026,0.16,0.54,3.49,3.54
9.036,-0.23,0.47,3.52,3.55
9.046,-0.15,0.59,3.03,3.09
9.056,0.45,1.11,2.09,2.41
9.066,1.26,2.03,0.80,2.52
9.076,2.58,2.99,-0.64,4.00
9.086,3.93,3.66,-1.19,5.50
9.096,4.17,4.22,-1.14,6.04
9.106,2.97,4.54,-2.19,5.85
9.116,0.89,4.32,-3.21,5.46
9.126,-1.22,3.88,-2.82,4.95
9.136,-2.78,3.29,-1.89,4.70
9.146,-3.28,2.28,-2.01,4.47
9.156,-3.18,1.22,-2.00,3.96
9.166,-3.08,0.35,-1.59,3.48
9.176,-2.67,-0.52,-1.42,3.06
9.186,-1.69,-1.15,-1.07,2.31
9.196,-0.56,-1.39,-1.16,1.89
9.206,0.42,-1.06,-1.26,1.70
9.216,1.46,-0.22,-1.10,1.84
9.226,2.19,0.63,-1.38,2.67
9.236,2.59,1.47,-1.52,3.34
9.246,2.42,2.18,-1.65,3.65
9.256,1.71,2.69,-1.75,3.64
9.266,0.93,2.83,-1.61,3.39
9.276,0.38,2.61,-1.39,2.99
9.286,-0.29,2.23,-1.36,2.62
9.296,-0.83,1.85,-1.23,2.37
9.306,-1.02,1.32,-1.18,2.05
9.316,-0.95,0.77,-1.18,1.70
9.326,-0.45,0.35,-0.98,1.14
9.336,-0.13,0.03,-0.86,0.87
9.346,-0.10,-0.11,-0.81,0.83
9.356,-0.25,-0.19,-0.54,0.63
9.366,-0.61,-0.42,-0.40,0.85
9.376,-0.86,-0.64,-0.25,1.10
9.386,-0.99,-0.81,-0.07,1.28
9.396,-0.77,-0.96,-0.04,1.23
9.406,-0.57,-1.06,0.12,1.21
9.416,-0.35,-1.01,0.40,1.14
9.426,-0.28,-0.88,0.78,1.21
9.436,-0.33,-0.75,1.04,1.32
9.446,-0.34,-0.68,1.00,1.26
9.456,-0.48,-0.71,0.98,1.31
9.466,-0.67,-0.80,1.18,1.57
9.476,-0.80,-0.86,1.20,1.68
9.486,-1.11,-0.99,1.20,1.91
9.496,-1.36,-1.19,1.16,2.15
9.506,-1.38,-1.23,1.22,2.21
9.516,-1.23,-1.12,1.18,2.04
9.526,-0.94,-0.77,1.11,1.65
9.536,-0.62,-0.36,1.19,1.39
9.546,-0.36,-0.01,1.17,1.22
9.557,-0.07,0.29,1.13,1.16
9.566,0.13,0.54,1.17,1.30
9.576,-0.01,0.62,1.27,1.42
9.586,-0.37,0.59,1.51,1.66
9.596,-0.65,0.48,1.76,1.94
9.606,-0.74,0.17,1.90,2.04
9.616,-0.60,-0.25,2.13,2.23
9.626,-0.22,-0.44,2.27,2.32
9.636,0.28,-0.59,2.14,2.24
9.646,0.82,-0.62,2.11,2.35
9.656,1.23,-0.36,2.15,2.50
9.666,1.31,-0.21,2.15,2.52
9.676,1.56,-0.15,1.80,2.39
9.686,2.13,0.22,1.42,2.57
9.696,2.53,0.84,1.32,2.98
9.706,2.74,1.44,1.35,3.38
9.716,2.99,2.01,1.28,3.82
9.726,3.27,2.41,1.03,4.19
9.736,3.58,2.87,0.61,4.63
9.746,3.32,2.94,0.02,4.43
9.756,2.66,2.34,-0.97,3.67
9.766,2.56,1.84,-2.00,3.73
9.776,2.73,1.63,-2.72,4.18
9.786,2.62,1.86,-2.38,4.00
9.796,2.55,2.14,-1.47,3.64
9.806,2.48,2.16,-0.81,3.38
9.816,2.36,1.90,-0.61,3.09
9.827,2.40,1.37,-0.31,2.78
9.837,2.27,0.70,-0.15,2.38
9.846,2.24,0.16,0.18,2.25
9.856,1.93,-0.53,0.15,2.00
9.867,1.78,-0.74,0.30,1.95
9.877,1.48,-0.87,0.08,1.72
9.887,0.87,-0.75,-0.22,1.17
9.897,0.21,-0.48,-0.39,0.65
9.907,-0.25,-0.32,-0.41,0.57
9.917,-0.91,-0.18,-0.58,1.09
9.927,-1.49,0.05,-0.84,1.71
9.937,-2.00,0.33,-1.06,2.29
9.947,-2.49,0.58,-1.14,2.80
9.957,-2.79,0.79,-1.19,3.13
9.967,-3.00,0.98,-1.22,3.38
9.977,-3.10,1.04,-1.13,3.46
9.987,-3.07,0.94,-1.00,3.36
9.997,-2.93,0.74,-0.89,3.15
10.007,-2.84,0.31,-0.73,2.95
10.017,-2.80,-0.10,-0.53,2.85
10.027,-2.70,-0.43,-0.33,2.75
10.037,-2.58,-0.67,-0.28,2.68
10.047,-2.49,-0.65,-0.13,2.57
10.057,-2.55,-0.54,-0.09,2.61
10.067,-2.54,-0.43,0.03,2.58
10.077,-2.49,-0.22,0.19,2.50
10.087,-2.35,0.03,0.13,2.36
10.097,-2.20,0.36,0.11,2.23
10.107,-2.16,0.39,0.10,2.20
10.117,-2.14,0.49,0.10,2.20
10.127,-1.99,0.60,0.16,2.08
10.137,-1.76,0.75,0.16,1.92
10.147,-1.49,0.96,0.07,1.77
10.157,-1.12,1.06,0.03,1.54
10.167,-0.84,1.07,0.15,1.37
10.177,-0.73,1.05,0.44,1.35
10.187,-0.66,0.96,0.61,1.32
10.197,-0.57,0.79,0.85,1.29
10.207,-0.40,0.48,0.94,1.13
10.217,-0.23,0.16,1.02,1.06
10.227,-0.16,-0.08,1.33,1.34
10.237,0.02,-0.05,1.75,1.75
10.247,0.25,0.16,1.97,2.00
10.257,0.38,0.34,2.02,2.08
10.267,0.32,0.38,2.12,2.18
10.277,0.20,0.34,2.33,2.37
10.287,0.13,0.29,2.54,2.56
10.297,0.25,0.10,2.79,2.80
10.307,0.49,-0.32,2.85,2.91
10.317,0.50,-0.84,2.26,2.46
10.327,0.51,-1.09,1.48,1.91
10.337,1.28,-0.43,0.85,1.59
10.347,2.38,0.84,0.32,2.55
10.357,3.65,1.98,0.39,4.17
10.367,4.65,2.12,1.81,5.42
10.377,4.84,0.96,2.39,5.48
10.387,4.35,-0.66,2.26,4.95
10.397,3.44,-1.32,1.67,4.04
10.407,2.03,-1.06,-0.04,2.29
10.417,0.32,0.08,-1.25,1.30
10.427,-1.16,1.28,-1.62,2.37
10.437,-1.75,1.76,-1.99,3.18
10.447,-1.09,1.71,-2.24,3.03
10.457,0.15,1.34,-2.31,2.67
10.467,1.54,1.14,-2.20,2.91
10.477,2.45,0.91,-2.34,3.51
10.487,2.74,0.57,-2.47,3.73
10.497,2.67,0.21,-2.29,3.53
10.507,2.46,0.12,-1.76,3.03
10.517,1.84,0.01,-1.27,2.24
10.527,1.27,-0.11,-1.21,1.76
10.537,0.72,-0.04,-1.19,1.39
10.547,-0.05,0.09,-1.17,1.18
10.557,-0.80,0.29,-1.01,1.32
10.567,-1.60,0.31,-0.88,1.85
10.577,-2.29,0.11,-1.10,2.54
10.587,-2.73,-0.03,-1.07,2.93
10.597,-3.03,-0.03,-0.81,3.14
10.607,-3.25,-0.11,-0.49,3.29
10.617,-3.49,-0.45,-0.70,3.59
10.627,-3.63,-0.73,-0.69,3.76
10.637,-3.52,-0.88,-0.68,3.69
10.647,-3.44,-1.11,-0.69,3.68
10.657,-3.42,-1.23,-0.82,3.73
10.667,-3.47,-0.99,-0.82,3.70
10.677,-3.56,-0.78,-1.01,3.78
10.687,-3.05,-0.57,-0.93,3.24
10.697,-2.63,-0.29,-0.86,2.78
10.707,-2.20,0.00,-1.02,2.42
10.717,-1.69,0.30,-0.75,1.87
10.727,-1.41,0.38,-0.89,1.71
10.737,-0.88,0.55,-0.34,1.09
10.747,-0.45,0.50,-0.22,0.71
10.757,-0.22,0.28,-0.07,0.36
10.767,-0.29,-0.08,0.12,0.32
10.777,-0.49,-0.30,0.03,0.58
10.787,-0.50,-0.46,0.08,0.68
10.797,-0.51,-0.65,0.24,0.86
10.807,-0.71,-1.00,0.44,1.30
10.817,-0.73,-1.23,0.71,1.60
10.827,-0.67,-1.29,0.96,1.74
10.837,-0.61,-1.36,1.11,1.86
10.847,-0.49,-1.41,1.34,2.00
10.857,-0.34,-1.53,1.50,2.17
10.867,-0.29,-1.63,1.64,2.33
10.877,-0.15,-1.61,1.74,2.38
10.887,0.11,-1.48,1.89,2.40
10.897,0.36,-1.45,2.03,2.52
10.907,0.59,-1.31,1.91,2.39
10.917,0.78,-0.97,1.53,1.97
10.927,0.98,-0.66,1.21,1.69
10.937,1.39,-0.43,0.91,1.72
10.947,2.17,-0.17,0.65,2.28
10.957,3.01,0.30,0.44,3.06
10.967,3.51,1.17,0.58,3.74
10.977,3.55,1.62,0.74,3.97
10.987,3.74,0.97,0.35,3.88
10.997,4.31,0.03,-0.02,4.31
11.007,4.46,-0.02,0.03,4.46
11.017,4.73,0.77,0.27,4.80
11.027,4.95,1.74,0.18,5.25
11.037,4.48,2.53,-0.32,5.16
11.047,3.62,2.53,-1.26,4.59
11.057,2.85,1.88,-1.94,3.93
11.067,2.19,1.22,-1.90,3.15
11.078,1.77,0.80,-1.26,2.31
11.087,1.71,0.55,-0.29,1.82
11.097,1.88,0.29,0.34,1.94
11.107,2.05,0.18,0.36,2.09
11.117,1.87,0.05,0.27,1.89
11.127,1.37,-0.00,0.29,1.40
11.137,0.70,0.01,0.06,0.70
11.147,0.38,0.28,-0.17,0.50
11.157,-0.07,0.61,-0.04,0.62
11.167,-0.61,0.86,0.10,1.06
11.177,-1.01,0.91,0.10,1.36
11.187,-1.29,0.65,0.08,1.45
11.197,-1.73,0.28,-0.02,1.75
11.207,-2.26,-0.14,-0.10,2.26
11.217,-2.81,-0.59,-0.21,2.88
11.227,-3.28,-1.00,-0.35,3.45
11.237,-3.55,-1.29,-0.40,3.80
11.247,-3.78,-1.48,-0.51,4.10
11.257,-4.01,-1.45,-0.53,4.30
11.268,-4.13,-1.12,-0.64,4.33
11.277,-4.15,-0.85,-0.55,4.28
11.287,-4.04,-0.64,-0.62,4.14
11.297,-3.84,-0.26,-0.64,3.90
11.307,-3.62,0.05,-0.65,3.68
11.318,-3.38,0.24,-0.64,3.45
11.328,-3.21,0.37,-0.60,3.29
11.338,-2.94,0.43,-0.51,3.02
11.347,-2.65,0.47,-0.46,2.73
11.358,-2.41,0.48,-0.53,2.52
11.368,-2.08,0.59,-0.58,2.24
11.378,-1.68,0.72,-0.51,1.90
11.388,-1.27,0.97,-0.41,1.65
11.398,-0.91,1.30,-0.39,1.63
11.408,-0.68,1.63,-0.36,1.81
11.418,-0.56,1.78,-0.35,1.90
11.428,-0.43,1.78,-0.26,1.85
11.438,-0.41,1.68,-0.17,1.73
11.448,-0.45,1.37,-0.11,1.45
11.458,-0.47,0.99,0.13,1.10
11.468,-0.51,0.65,0.39,0.91
11.478,-0.50,0.33,0.56,0.83
11.488,-0.54,0.15,0.70,0.90
11.498,-0.59,0.07,0.93,1.11
11.508,-0.56,0.00,1.20,1.32
11.518,-0.53,-0.10,1.48,1.58
11.528,-0.50,-0.21,1.73,1.82
11.538,-0.44,-0.34,1.90,1.98
11.548,-0.46,-0.46,2.10,2.20
11.558,-0.51,-0.50,2.36,2.46
11.568,-0.42,-0.56,2.62,2.71
11.578,-0.08,-0.70,2.80,2.89
11.588,0.43,-0.85,2.83,2.98
11.598,0.88,-0.95,2.61,2.91
11.608,1.23,-0.81,2.16,2.61
11.618,1.68,-0.39,1.30,2.16
11.628,2.73,0.67,0.84,2.93
11.638,3.99,1.88,0.63,4.46
11.648,5.19,2.81,0.77,5.95
11.658,5.95,3.14,1.48,6.88
11.668,6.00,2.06,2.47,6.80
11.678,5.19,0.13,3.03,6.01
11.688,3.85,-1.03,1.94,4.43
11.698,2.01,-1.00,0.88,2.41
11.708,0.12,-0.06,-0.06,0.15
11.718,-1.04,0.75,-0.74,1.48
11.728,-1.02,1.06,-1.04,1.80
11.738,-0.45,0.94,-1.12,1.53
11.748,0.25,0.66,-1.19,1.38
11.758,1.09,0.46,-1.20,1.69
11.768,1.58,0.50,-1.39,2.16
11.778,1.54,0.48,-1.59,2.26
11.788,1.30,0.37,-1.78,2.23
11.798,1.14,0.26,-1.51,1.92
11.808,0.93,0.19,-1.13,1.47
11.818,0.64,-0.01,-1.00,1.18
11.828,0.41,-0.14,-0.97,1.06
11.838,-0.13,-0.16,-0.89,0.92
11.848,-0.83,-0.18,-0.75,1.13
11.858,-1.52,-0.23,-0.67,1.68
11.868,-2.10,-0.34,-0.65,2.22
11.878,-2.45,-0.35,-0.61,2.54
11.888,-2.77,-0.38,-0.58,2.85
11.898,-3.06,-0.40,-0.56,3.13
11.908,-3.23,-0.44,-0.67,3.33
11.918,-3.40,-0.61,-0.76,3.54
11.928,-3.54,-0.85,-0.74,3.72
11.938,-3.49,-0.92,-0.42,3.63
11.948,-3.38,-0.98,-0.43,3.55
11.958,-3.26,-1.10,-0.56,3.48
11.968,-3.26,-1.09,-0.54,3.48
11.978,-3.17,-0.90,-0.63,3.36
11.988,-2.86,-0.85,-0.86,3.11
11.998,-2.36,-0.57,-0.88,2.58
12.008,-1.83,-0.28,-0.56,1.93
12.018,-1.30,-0.27,-0.59,1.46
12.028,-1.09,-0.23,-0.58,1.25
12.038,-1.02,-0.22,-0.53,1.16
12.048,-0.73,0.01,-0.31,0.79
12.058,-0.44,0.07,-0.32,0.55
12.068,-0.17,-0.06,-0.07,0.19
12.078,0.03,-0.02,0.07,0.08
12.088,0.03,0.05,0.21,0.22
12.098,-0.24,-0.05,0.31,0.39
12.108,-0.48,-0.19,0.33,0.61
12.118,-0.53,-0.37,0.36,0.74
12.128,-0.50,-0.53,0.56,0.92
12.138,-0.37,-0.67,0.84,1.13
12.148,-0.10,-0.83,1.10,1.38
12.158,0.19,-0.92,1.18,1.51
12.168,0.39,-1.06,1.25,1.69
12.178,0.42,-1.20,1.37,1.87
12.188,0.38,-1.20,1.57,2.01
12.198,0.38,-1.03,1.78,2.09
12.208,0.52,-0.86,1.86,2.12
12.218,0.83,-0.72,2.02,2.30
12.228,1.18,-0.58,2.07,2.45
12.238,1.37,-0.35,2.08,2.52
12.248,1.31,-0.16,1.99,2.39
12.258,1.36,0.05,1.71,2.19
12.268,1.67,0.32,1.36,2.18
12.278,1.90,0.69,1.33,2.42
12.288,2.29,0.21,0.79,2.43
12.298,3.02,-0.46,0.33,3.08
12.308,3.96,-0.39,0.28,3.99
12.318,4.73,0.07,0.25,4.74
12.328,4.65,0.75,-0.05,4.71
12.338,4.40,1.52,-0.43,4.68
12.348,3.85,2.10,-0.90,4.48
12.358,2.75,2.01,-1.59,3.76
12.368,2.03,1.42,-1.98,3.17
12.378,1.80,1.10,-1.52,2.60
12.388,1.80,0.96,-1.09,2.31
12.398,2.05,0.83,-0.53,2.27
12.408,2.44,0.79,-0.11,2.56
12.418,2.61,0.77,0.21,2.73
12.428,2.25,0.56,0.42,2.36
12.438,1.26,0.20,0.49,1.36
12.448,0.27,-0.05,0.20,0.34
12.458,-0.15,-0.07,-0.18,0.24
12.468,-0.49,-0.06,-0.22,0.54
12.478,-1.14,-0.10,-0.26,1.17
12.488,-1.58,-0.08,-0.24,1.60
12.498,-1.75,-0.10,-0.10,1.76
12.508,-2.11,-0.17,-0.13,2.12
12.518,-2.55,-0.14,-0.23,2.56
12.528,-2.91,-0.23,-0.39,2.95
12.538,-2.89,-0.41,-0.51,2.96
12.548,-2.85,-0.54,-0.50,2.95
12.558,-2.89,-0.72,-0.73,3.06
12.568,-3.05,-0.72,-0.78,3.23
12.578,-3.41,-0.78,-0.64,3.56
12.588,-3.70,-0.69,-0.57,3.81
12.598,-3.66,-0.45,-0.59,3.73
12.608,-3.61,-0.05,-0.74,3.69
12.618,-3.66,0.27,-0.74,3.75
12.628,-3.58,0.31,-0.60,3.65
12.638,-3.43,0.28,-0.36,3.46
12.648,-3.22,0.14,-0.32,3.24
12.658,-2.95,-0.06,-0.36,2.97
12.668,-2.55,-0.17,-0.29,2.58
12.678,-2.02,-0.22,-0.29,2.05
12.688,-1.41,-0.14,-0.29,1.44
12.698,-0.83,0.05,-0.25,0.87
12.709,-0.43,0.29,-0.21,0.56
12.718,-0.35,0.54,-0.13,0.66
12.728,-0.37,0.84,-0.01,0.92
12.739,-0.43,1.06,-0.05,1.14
12.748,-0.42,1.20,0.01,1.27
12.758,-0.35,1.36,0.10,1.41
12.768,-0.37,1.49,0.22,1.55
12.778,-0.40,1.41,0.39,1.52
12.788,-0.31,1.12,0.55,1.29
12.798,-0.10,0.73,0.84,1.12
12.809,0.12,0.39,1.24,1.30
12.819,0.30,0.02,1.63,1.66
12.828,0.43,-0.24,2.12,2.17
12.839,0.49,-0.51,2.34,2.44
12.849,0.36,-0.72,2.44,2.57
12.859,0.12,-0.91,2.67,2.82
12.869,-0.02,-1.07,2.95,3.14
12.878,0.14,-1.12,3.11,3.30
12.889,0.42,-1.22,3.35,3.59
12.899,0.76,-1.34,3.21,3.56
12.909,0.97,-1.17,2.06,2.56
12.919,0.81,-0.46,0.08,0.94
12.929,1.29,1.14,-0.62,1.83
12.939,2.74,3.12,-0.16,4.16
12.949,5.18,4.43,0.69,6.85
12.960,7.34,3.22,2.41,8.37
12.969,7.83,0.48,4.31,8.95
12.979,4.95,-1.99,3.83,6.56
12.989,2.01,-2.53,1.99,3.79
12.999,-0.06,-1.76,-0.15,1.77
13.009,-1.69,-0.22,-1.44,2.23
13.019,-2.51,0.80,-1.46,3.02
13.029,-1.95,0.77,-1.62,2.65
13.039,-0.09,0.31,-1.26,1.30
13.049,1.35,-0.08,-1.26,1.85
13.059,1.81,0.07,-1.21,2.18
13.069,1.58,0.50,-1.15,2.01
13.079,1.31,0.59,-1.20,1.88
13.089,1.48,0.50,-1.18,1.96
13.099,1.44,0.42,-0.86,1.73
13.109,1.02,0.22,-0.63,1.22
13.119,0.49,0.06,-0.59,0.77
13.129,-0.22,-0.13,-0.44,0.51
13.139,-0.99,-0.41,-0.47,1.17
13.149,-1.62,-0.64,-0.69,1.87
13.159,-2.10,-0.75,-0.73,2.35
13.169,-2.38,-0.69,-0.72,2.58
13.179,-2.51,-0.59,-0.58,2.64
13.189,-2.55,-0.48,-0.74,2.69
13.199,-2.59,-0.30,-0.90,2.76
13.209,-2.72,-0.24,-0.80,2.85
13.219,-2.86,-0.32,-0.85,3.00
13.229,-2.79,-0.34,-1.00,2.99
13.239,-2.84,-0.45,-0.98,3.03
13.249,-2.85,-0.40,-1.28,3.15
13.259,-2.77,-0.19,-1.39,3.11
13.269,-2.75,-0.09,-1.31,3.05
13.279,-2.68,0.07,-1.32,2.98
13.289,-2.48,0.10,-1.19,2.75
13.299,-2.30,-0.07,-1.23,2.61
13.309,-1.84,-0.11,-1.15,2.18
13.319,-1.47,-0.21,-1.19,1.90
13.329,-1.29,-0.27,-0.76,1.52
13.339,-0.93,-0.22,-0.72,1.20
13.349,-0.60,-0.16,-0.84,1.05
13.359,-0.51,-0.24,-0.58,0.81
13.369,-0.33,-0.19,-0.46,0.60
13.379,-0.20,0.02,-0.34,0.39
13.389,-0.19,0.05,-0.30,0.36
13.399,-0.17,0.04,-0.11,0.21
13.409,-0.15,0.01,0.02,0.16
13.419,-0.15,-0.07,0.30,0.34
13.429,-0.23,-0.18,0.73,0.79
13.439,-0.21,-0.38,0.99,1.08
13.449,-0.10,-0.65,1.18,1.36
13.459,0.06,-1.03,1.39,1.73
13.469,0.33,-1.27,1.67,2.12
13.479,0.63,-1.25,2.11,2.53
13.489,1.02,-1.15,2.49,2.92
13.499,1.46,-1.19,2.73,3.31
13.509,1.77,-1.13,3.00,3.66
13.519,1.71,-0.92,2.97,3.55
13.529,1.35,-0.53,2.53,2.92
13.539,0.82,-0.01,2.03,2.19
13.549,0.65,0.52,1.46,1.68
13.559,1.14,1.02,0.86,1.75
13.569,1.80,0.82,0.51,2.05
13.579,2.56,-0.45,-0.39,2.62
13.589,3.90,-0.63,-0.42,3.97
13.599,4.67,-0.10,0.01,4.67
13.609,4.01,0.65,0.17,4.06
13.619,3.38,1.69,-0.01,3.78
13.629,3.00,2.26,-0.56,3.79
13.639,2.36,2.17,-1.18,3.41
13.649,1.60,1.47,-1.76,2.79
13.659,1.43,0.86,-1.64,2.34
13.669,1.81,0.64,-1.05,2.19
13.679,2.31,0.54,-0.49,2.42
13.689,2.76,0.53,-0.12,2.82
13.699,2.83,0.55,0.01,2.89
13.709,2.27,0.43,0.24,2.32
13.719,0.98,0.09,0.12,0.99
13.729,0.16,-0.19,-0.07,0.26
13.739,-0.12,-0.45,-0.12,0.48
13.749,-0.45,-0.53,-0.12,0.70
13.759,-0.66,-0.42,-0.15,0.80
13.769,-0.76,-0.37,-0.09,0.85
13.779,-1.07,-0.49,-0.05,1.18
13.789,-1.53,-0.58,-0.11,1.64
13.799,-1.91,-0.66,-0.35,2.05
13.809,-2.20,-0.42,-0.63,2.32
13.819,-2.54,-0.30,-0.64,2.64
13.829,-2.89,-0.37,-0.80,3.02
13.839,-3.08,-0.39,-0.82,3.21
13.849,-3.22,-0.30,-0.70,3.31
13.859,-3.49,-0.20,-0.71,3.56
13.869,-3.64,-0.08,-0.78,3.72
13.879,-3.70,0.05,-0.83,3.79
13.889,-3.51,0.09,-0.76,3.60
13.899,-3.38,-0.04,-0.80,3.47
13.909,-3.32,-0.24,-0.75,3.42
13.919,-3.14,-0.37,-0.78,3.26
13.929,-2.83,-0.42,-0.73,2.96
13.939,-2.42,-0.33,-0.63,2.52
13.949,-2.01,-0.23,-0.62,2.11
13.959,-1.72,-0.05,-0.57,1.81
13.969,-1.42,0.07,-0.36,1.47
13.979,-1.15,0.17,-0.22,1.18
13.989,-0.92,0.23,-0.10,0.95
13.999,-0.83,0.36,-0.06,0.91
14.009,-0.79,0.53,0.06,0.96
14.019,-0.56,0.84,0.20,1.03
14.029,-0.25,1.02,0.28,1.09
14.039,-0.14,1.06,0.36,1.13
14.049,0.05,1.05,0.34,1.10
14.059,0.29,0.95,0.38,1.06
14.069,0.27,0.79,0.55,1.00
14.079,0.07,0.66,0.70,0.97
14.089,-0.09,0.54,0.97,1.11
14.099,-0.15,0.37,1.28,1.34
14.109,-0.09,0.17,1.59,1.60
14.119,0.03,0.04,1.87,1.87
14.129,0.10,-0.09,2.15,2.15
14.139,0.12,-0.26,2.47,2.49
14.149,0.15,-0.41,2.78,2.82
14.159,0.35,-0.59,3.03,3.11
14.169,0.61,-0.79,3.24,3.39
14.179,0.76,-1.00,3.05,3.30
14.189,0.32,-1.30,2.44,2.78
14.199,0.48,-0.88,0.44,1.10
14.209,1.79,0.89,-1.02,2.24
14.219,3.59,3.03,-1.07,4.82
14.229,4.92,4.22,-0.64,6.51
14.239,6.37,3.62,2.48,7.73
14.249,7.00,0.71,4.06,8.12
14.259,5.73,-2.64,3.26,7.10
14.269,3.57,-3.35,1.26,5.05
14.279,0.66,-2.08,-0.45,2.22
14.289,-1.64,-0.35,-1.40,2.19
14.299,-2.56,0.82,-1.69,3.18
14.309,-1.91,0.92,-1.72,2.73
14.319,-0.31,0.39,-1.98,2.04
14.329,1.40,0.11,-1.86,2.33
14.339,2.28,-0.00,-1.68,2.84
14.349,2.45,0.04,-1.71,2.99
14.359,2.18,0.29,-1.62,2.73
14.369,1.46,0.54,-1.44,2.12
14.380,0.59,0.73,-1.21,1.53
14.389,-0.13,0.77,-1.08,1.33
14.400,-0.49,0.59,-1.00,1.26
14.409,-0.84,0.35,-0.97,1.33
14.419,-1.36,-0.01,-0.87,1.61
14.429,-1.93,-0.39,-0.80,2.13
14.440,-2.41,-0.69,-0.61,2.58
14.450,-2.67,-1.00,-0.59,2.91
14.460,-2.74,-1.14,-0.53,3.02
14.470,-2.70,-1.12,-0.46,2.96
14.480,-2.71,-1.12,-0.50,2.98
14.490,-2.81,-1.26,-0.54,3.13
14.500,-2.92,-1.33,-0.66,3.27
14.510,-2.95,-1.26,-0.90,3.33
14.520,-2.97,-1.03,-0.93,3.28
14.530,-3.01,-0.80,-0.90,3.24
14.540,-2.87,-0.55,-1.13,3.14
14.550,-2.59,-0.25,-1.19,2.86
14.560,-2.14,0.05,-1.05,2.39
14.570,-1.82,0.21,-0.97,2.07
14.580,-1.40,0.18,-0.70,1.58
14.590,-1.06,0.07,-0.74,1.30
14.600,-1.03,-0.02,-0.67,1.23
14.610,-0.94,-0.27,-0.61,1.15
14.620,-0.83,-0.59,-0.59,1.18
14.630,-0.59,-0.82,-0.59,1.17
14.640,-0.48,-0.99,-0.48,1.20
14.650,-0.31,-0.88,-0.50,1.05
14.660,-0.18,-0.57,-0.27,0.66
14.670,-0.29,-0.41,-0.27,0.57
14.680,-0.23,-0.17,-0.25,0.38
14.690,-0.27,0.09,-0.11,0.31
14.700,-0.43,0.27,0.05,0.51
14.710,-0.43,0.22,0.18,0.52
14.720,-0.26,-0.01,0.36,0.44
14.730,-0.08,-0.35,0.40,0.54
14.740,0.09,-0.54,0.57,0.79
14.750,0.21,-0.68,0.65,0.97
14.760,0.16,-0.86,0.58,1.05
14.770,0.07,-0.88,0.58,1.06
14.780,-0.09,-0.83,0.79,1.15
14.790,-0.18,-0.80,1.22,1.47
14.800,-0.08,-0.89,1.55,1.79
14.810,0.24,-0.94,1.93,2.16
14.820,0.52,-1.13,2.26,2.58
14.830,0.67,-1.32,2.36,2.79
14.840,0.81,-1.40,2.15,2.69
14.850,0.91,-1.18,1.82,2.35
14.860,0.99,-0.81,1.56,2.02
14.870,1.22,-0.55,1.45,1.97
14.880,1.85,-0.38,1.22,2.24
14.890,2.61,-0.21,0.31,2.64
14.900,3.19,-0.19,-0.27,3.21
14.910,3.96,-1.11,-0.02,4.11
14.920,4.23,-1.31,0.75,4.49
14.930,3.69,0.23,1.43,3.96
14.940,3.70,1.68,1.40,4.30
14.950,4.06,2.29,0.85,4.74
14.960,4.33,2.34,-0.17,4.93
14.970,3.62,1.70,-1.17,4.17
14.980,2.34,0.74,-1.31,2.78
14.990,1.49,0.16,-1.16,1.90
15.000,1.22,0.23,-0.81,1.48
15.010,1.39,0.51,-0.30,1.51
15.020,1.76,0.60,0.22,1.87
15.030,2.37,0.55,0.64,2.51
15.040,2.66,0.28,0.80,2.79
15.050,2.25,-0.06,0.72,2.36
15.060,1.26,-0.21,0.43,1.35
15.070,0.25,-0.08,0.21,0.33
15.080,-0.29,0.12,-0.03,0.32
15.090,-0.88,0.31,-0.14,0.95
15.100,-1.44,0.37,-0.13,1.49
15.110,-1.80,0.21,-0.08,1.81
15.120,-2.20,-0.08,-0.01,2.20
15.130,-2.46,-0.44,-0.01,2.50
15.140,-2.75,-0.76,-0.16,2.86
15.150,-3.08,-1.01,-0.22,3.25
15.160,-3.23,-1.02,-0.48,3.42
15.170,-3.32,-1.11,-0.46,3.53
15.180,-3.32,-1.10,-0.58,3.55
15.190,-3.44,-0.91,-0.66,3.62
15.200,-3.53,-0.60,-0.65,3.64
15.210,-3.56,-0.40,-0.75,3.66
15.220,-3.66,-0.26,-0.67,3.73
15.230,-3.61,-0.04,-0.51,3.65
15.240,-3.37,0.08,-0.42,3.39
15.250,-3.21,0.04,-0.44,3.24
15.260,-3.07,0.07,-0.28,3.08
15.270,-2.76,-0.01,-0.16,2.77
15.280,-2.31,-0.08,-0.14,2.31
15.290,-1.79,-0.21,-0.22,1.82
15.300,-1.23,-0.28,-0.21,1.27
15.310,-0.81,-0.20,-0.19,0.86
15.320,-0.55,0.01,-0.18,0.58
15.330,-0.35,0.34,-0.12,0.50
15.340,-0.26,0.62,-0.14,0.68
15.350,-0.29,0.81,-0.11,0.87
15.360,-0.37,0.92,-0.08,0.99
15.370,-0.37,0.97,-0.10,1.05
15.380,-0.26,0.98,-0.15,1.02
15.390,-0.14,1.01,-0.09,1.02
15.400,-0.13,0.99,0.02,1.00
15.410,-0.25,0.92,0.20,0.97
15.420,-0.40,0.90,0.42,1.07
15.430,-0.57,0.84,0.64,1.20
15.440,-0.74,0.50,0.84,1.22
15.450,-0.72,0.11,0.85,1.12
15.460,-0.64,-0.06,0.97,1.16
15.470,-0.68,-0.17,1.01,1.23
15.480,-0.69,-0.25,1.09,1.31
15.490,-0.70,-0.10,1.12,1.32
15.500,-0.90,0.00,1.17,1.48
15.510,-1.12,-0.02,1.31,1.72
15.520,-1.05,0.07,1.50,1.83
15.530,-0.87,0.08,1.66,1.88
15.540,-0.41,-0.03,1.86,1.90
15.550,0.12,-0.22,1.97,1.99
15.560,0.45,-0.36,2.22,2.30
15.570,0.55,-0.44,2.52,2.62
15.580,0.39,-0.69,2.73,2.84
15.590,0.29,-0.92,3.38,3.52
15.600,0.49,-1.01,3.69,3.86
15.610,0.99,-0.60,0.93,1.49
15.620,1.42,0.84,-1.23,2.05
15.630,1.03,1.46,2.10,2.75
15.640,2.17,1.87,1.69,3.32
15.650,5.97,2.51,1.00,6.56
15.661,8.48,0.97,2.19,8.81
15.670,7.23,-1.53,2.13,7.69
15.680,4.92,-1.21,2.41,5.61
15.690,1.45,-1.19,1.31,2.28
15.700,-0.35,-0.46,-0.10,0.59
15.710,-1.32,0.82,-1.37,2.07
15.720,-1.62,2.06,-1.84,3.20
15.730,-1.06,2.42,-1.98,3.30
15.740,0.41,2.31,-2.11,3.16
15.750,1.85,2.02,-1.66,3.20
15.760,2.28,1.52,-1.43,3.09
15.770,1.91,1.41,-1.24,2.68
15.780,1.16,1.43,-1.12,2.15
15.791,0.67,1.32,-0.90,1.73
15.801,0.46,1.16,-0.71,1.43
15.811,0.10,0.70,-0.58,0.92
15.821,-0.27,0.10,-0.60,0.67
15.831,-0.63,-0.29,-0.49,0.85
15.840,-1.05,-0.51,-0.18,1.18
15.851,-1.45,-0.47,-0.17,1.53
15.861,-1.99,-0.27,-0.15,2.01
15.870,-2.49,0.01,-0.20,2.50
15.881,-2.89,0.18,-0.11,2.90
15.890,-3.06,0.23,-0.38,3.09
15.900,-2.96,0.28,-0.58,3.03
15.911,-2.86,0.28,-0.74,2.97
15.921,-2.81,0.12,-0.89,2.95
15.930,-2.72,-0.10,-1.10,2.93
15.941,-2.61,-0.27,-1.11,2.85
15.951,-2.66,-0.35,-1.20,2.94
15.961,-2.72,-0.31,-1.43,3.09
15.971,-2.75,-0.20,-1.12,2.98
15.981,-2.57,-0.28,-0.85,2.72
15.994,-2.28,-0.46,-0.89,2.49
16.001,-1.94,-0.64,-0.75,2.18
16.011,-1.50,-0.58,-0.72,1.76
16.024,-1.09,-0.55,-0.76,1.44
16.031,-0.72,-0.35,-0.31,0.86
16.041,-0.62,-0.54,-0.61,1.02
16.051,-0.47,-0.43,-0.29,0.70
16.061,-0.46,-0.41,-0.27,0.68
16.071,-0.40,-0.60,-0.06,0.72
16.081,-0.12,-0.70,-0.02,0.71
16.091,0.07,-0.45,0.17,0.48
16.101,-0.04,-0.32,0.33,0.46
16.111,-0.25,-0.35,0.39,0.58
16.121,-0.53,-0.41,0.50,0.84
16.131,-0.72,-0.57,0.68,1.15
16.141,-0.67,-0.78,0.76,1.28
16.151,-0.46,-0.95,0.77,1.31
16.161,-0.32,-1.12,0.68,1.35
16.171,-0.26,-1.19,0.68,1.40
16.181,-0.31,-1.07,0.56,1.25
16.191,-0.41,-0.79,0.42,0.99
16.201,-0.46,-0.59,0.26,0.79
16.211,-0.34,-0.33,0.20,0.51
16.221,-0.20,-0.06,0.32,0.38
16.231,-0.33,0.13,0.57,0.67
16.241,-0.57,0.26,0.66,0.91
16.251,-0.63,0.46,0.77,1.10
16.261,-0.51,0.39,0.85,1.06
16.271,-0.38,0.06,0.88,0.96
16.281,-0.34,-0.32,0.94,1.05
16.291,-0.39,-0.83,1.01,1.36
16.301,-0.23,-1.42,1.00,1.75
16.311,0.15,-1.45,1.34,1.98
16.321,0.27,-1.07,1.69,2.02
16.331,0.01,-0.52,2.10,2.16
16.341,-0.43,-0.17,2.34,2.39
16.351,-0.68,-0.44,1.87,2.04
16.361,-0.93,-1.21,1.54,2.17
16.371,-1.16,-2.30,1.51,2.99
16.381,-1.18,-2.92,1.57,3.52
16.394,-1.18,-2.86,1.70,3.54
16.401,-0.83,-2.35,1.66,2.99
16.411,0.27,-1.36,1.47,2.02
16.422,1.45,-0.23,1.25,1.93
16.431,2.01,0.52,1.09,2.34
16.441,2.35,0.57,0.43,2.45
16.451,2.65,0.45,-0.24,2.69
16.461,2.69,0.65,-1.01,2.94
16.471,2.38,1.11,-1.96,3.28
16.481,1.85,1.85,-2.83,3.85
16.491,1.24,2.68,-3.40,4.51
16.501,0.75,3.34,-3.49,4.89
16.511,0.36,3.77,-3.15,4.93
16.521,-0.01,3.94,-2.47,4.65
16.531,-0.34,3.52,-1.98,4.06
16.541,-0.57,2.76,-1.42,3.16
16.551,-0.58,1.75,-0.82,2.02
16.561,-0.22,0.83,-0.31,0.92
16.571,0.00,0.15,-0.01,0.15
16.581,-0.08,-0.29,-0.03,0.30
16.591,0.17,-0.14,0.02,0.22
16.601,0.28,0.07,0.11,0.32
16.611,0.40,0.31,-0.09,0.52
16.621,1.02,0.79,-0.20,1.31
16.631,1.23,1.15,0.03,1.69
16.641,1.06,1.27,-0.11,1.66
16.651,0.75,1.31,-0.48,1.59
16.661,0.39,1.34,-0.52,1.49
16.671,-0.11,1.26,-0.74,1.46
16.681,-0.61,1.13,-0.82,1.52
16.691,-1.05,0.98,-0.93,1.71
16.701,-1.36,0.88,-0.92,1.86
16.711,-1.60,0.79,-0.87,1.98
16.721,-1.80,0.80,-0.86,2.15
16.731,-1.88,0.82,-0.91,2.24
16.741,-1.89,0.95,-0.97,2.33
16.751,-1.79,1.13,-0.93,2.31
16.761,-1.60,1.33,-0.77,2.22
16.771,-1.37,1.47,-0.67,2.12
16.781,-1.11,1.55,-0.55,1.98
16.791,-0.83,1.57,-0.41,1.82
16.801,-0.61,1.49,-0.30,1.63
16.811,-0.53,1.37,-0.26,1.49
16.821,-0.62,1.27,-0.19,1.43
16.831,-0.75,1.18,-0.09,1.40
16.841,-0.90,1.09,0.09,1.42
16.851,-0.99,0.89,0.18,1.34
16.861,-1.08,0.65,0.25,1.28
16.871,-1.17,0.42,0.52,1.35
16.881,-1.25,0.18,0.82,1.51
16.891,-1.28,-0.09,1.13,1.71
16.901,-1.13,-0.37,1.56,1.96
16.911,-0.87,-0.65,1.91,2.19
16.921,-0.62,-0.83,2.17,2.41
16.931,-0.38,-0.93,2.44,2.64
16.941,-0.18,-0.85,2.62,2.77
16.951,-0.05,-0.57,2.74,2.80
16.961,-0.02,-0.20,2.79,2.79
16.971,-0.10,-0.06,2.82,2.83
16.981,-0.23,-0.18,2.80,2.81
16.991,-0.37,-0.43,2.65,2.71
17.001,-0.37,-0.52,2.35,2.44
17.011,-0.09,-0.20,1.57,1.59
17.021,0.20,0.53,1.23,1.36
17.031,0.16,0.96,1.38,1.68
17.041,-0.04,1.29,1.22,1.77
17.051,-0.20,1.77,1.42,2.28
17.061,-0.63,1.89,1.74,2.64
17.071,-0.84,1.68,2.09,2.81
17.081,-1.00,1.04,2.71,3.08
17.091,-1.32,0.25,2.87,3.17
17.101,-1.64,-0.31,2.59,3.08
17.111,-1.41,-0.26,1.84,2.33
17.121,0.68,1.29,-0.36,1.50
17.131,3.53,3.59,-0.78,5.09
17.141,5.01,4.14,1.92,6.78
17.151,4.84,3.15,0.91,5.85
17.161,4.31,2.90,-3.24,6.12
17.171,2.73,3.06,-3.15,5.17
17.181,0.56,2.67,-2.30,3.56
17.191,-0.65,1.95,-3.04,3.67
17.201,-1.11,1.39,-2.92,3.42
17.211,-1.72,1.00,-2.95,3.56
17.221,-2.17,0.66,-2.02,3.04
17.231,-2.17,0.34,-1.83,2.86
17.241,-1.53,0.56,-1.62,2.30
17.251,-0.42,0.97,-0.94,1.41
17.261,0.98,1.26,-0.63,1.72
17.271,2.16,1.66,-0.57,2.78
17.282,2.61,2.07,-0.85,3.44
17.291,2.17,2.46,-1.35,3.54
17.301,1.21,2.78,-1.62,3.44
17.311,0.26,2.79,-1.87,3.37
17.321,-0.48,2.52,-2.09,3.31
17.331,-1.15,2.11,-2.15,3.22
17.341,-1.60,1.71,-1.91,3.03
17.351,-1.66,1.50,-1.80,2.87
17.361,-1.51,1.37,-1.63,2.61
17.371,-1.26,1.31,-1.40,2.29
17.381,-1.12,1.23,-1.32,2.12
17.391,-0.81,1.09,-1.38,1.94
17.402,-0.49,0.88,-1.20,1.57
17.411,-0.31,0.57,-0.83,1.05
17.422,-0.18,0.25,-0.72,0.78
17.432,-0.24,0.09,-0.47,0.53
17.442,-0.42,0.01,-0.33,0.53
17.452,-0.60,-0.04,-0.35,0.69
17.462,-0.59,-0.05,-0.10,0.60
17.472,-0.52,0.00,0.13,0.53
17.482,-0.41,-0.01,0.30,0.51
17.492,-0.26,-0.09,0.42,0.50
17.502,-0.28,-0.11,0.43,0.52
17.512,-0.53,-0.13,0.80,0.97
17.522,-0.81,-0.19,1.03,1.32
17.532,-1.06,-0.56,0.91,1.51
17.542,-1.02,-0.81,1.08,1.70
17.552,-0.78,-1.02,1.15,1.72
17.562,-0.34,-1.01,1.16,1.58
17.572,-0.01,-0.67,1.27,1.44
17.582,0.07,-0.25,1.10,1.13
17.592,-0.06,0.28,1.00,1.04
17.602,-0.35,0.75,0.90,1.22
17.612,-0.51,0.97,0.84,1.38
17.622,-0.38,1.23,0.90,1.57
17.632,-0.19,1.34,1.14,1.77
17.642,-0.20,1.21,1.52,1.95
17.652,-0.54,0.65,1.84,2.02
17.662,-0.81,-0.31,1.57,1.80
17.672,-0.71,-0.61,1.52,1.79
17.682,-0.89,-0.49,1.74,2.02
17.692,-1.15,-0.55,1.69,2.12
17.702,-1.31,-0.84,1.24,1.99
17.712,-1.18,-1.46,1.13,2.19
17.722,-0.81,-1.78,1.27,2.34
17.732,-0.74,-1.36,1.73,2.32
17.742,-0.77,-0.73,2.06,2.32
17.752,-0.69,-0.20,1.99,2.11
17.762,-0.04,0.41,1.59,1.64
17.772,1.25,1.43,1.52,2.43
17.782,2.25,2.80,1.52,3.90
17.792,2.08,3.22,0.46,3.86
17.802,1.95,2.43,-1.07,3.30
17.812,2.44,1.94,-1.80,3.60
17.822,2.33,1.67,-2.57,3.85
17.832,1.57,1.56,-3.29,3.97
17.842,0.50,1.97,-3.94,4.44
17.852,-0.37,2.55,-4.06,4.81
17.862,-0.47,2.94,-3.54,4.62
17.872,-0.21,2.89,-2.77,4.01
17.882,0.50,2.56,-2.04,3.31
17.892,1.23,2.15,-1.42,2.86
17.902,1.13,1.72,-0.71,2.18
17.912,0.76,1.09,-0.05,1.33
17.922,0.54,0.38,0.46,0.81
17.932,0.40,-0.17,0.76,0.87
17.942,0.31,-0.72,0.82,1.13
17.952,0.39,-1.05,1.13,1.59
17.962,0.75,-0.95,0.93,1.53
17.972,0.98,-0.51,0.91,1.43
17.982,0.68,0.00,0.82,1.07
17.992,0.21,0.57,0.64,0.88
18.002,-0.19,0.95,0.33,1.03
18.012,-0.61,1.24,0.12,1.39
18.022,-1.19,1.43,-0.04,1.86
18.032,-1.68,1.39,-0.10,2.19
18.042,-1.79,1.21,-0.12,2.17
18.052,-1.83,1.08,-0.08,2.13
18.062,-1.80,0.83,-0.10,1.99
18.072,-1.68,0.69,-0.21,1.83
18.082,-1.70,0.68,-0.20,1.84
18.092,-1.64,0.72,-0.15,1.80
18.102,-1.66,0.93,0.03,1.90
18.112,-1.64,1.05,0.18,1.95
18.122,-1.59,1.02,0.35,1.92
18.132,-1.49,0.92,0.52,1.83
18.142,-1.43,0.82,0.56,1.74
18.152,-1.50,0.79,0.59,1.80
18.162,-1.57,0.75,0.74,1.89
18.172,-1.52,0.71,0.97,1.94
18.182,-1.30,0.62,1.04,1.78
18.192,-1.19,0.48,1.14,1.72
18.202,-1.23,0.28,1.39,1.88
18.212,-1.25,0.10,1.54,1.99
18.222,-1.23,-0.07,1.75,2.14
18.232,-1.12,-0.23,2.10,2.40
18.242,-1.00,-0.29,2.48,2.69
18.252,-0.65,-0.23,2.73,2.82
18.262,-0.21,-0.23,2.86,2.88
18.272,0.24,-0.32,2.82,2.85
18.282,0.53,-0.43,2.90,2.98
18.292,0.77,-0.57,3.07,3.21
18.302,1.12,-0.71,3.30,3.56
18.312,1.45,-0.78,3.40,3.78
18.322,1.56,-0.64,3.29,3.70
18.332,1.43,-0.28,3.05,3.38
18.342,1.11,0.28,2.44,2.69
18.352,0.64,0.86,1.99,2.26
18.363,0.02,1.23,2.59,2.86
18.372,-0.47,1.41,2.77,3.15
18.382,-0.37,1.57,2.53,3.00
18.392,-0.43,1.33,2.82,3.15
18.402,-1.02,0.76,3.34,3.57
18.412,-1.58,0.20,3.35,3.71
18.422,-1.49,0.27,2.34,2.79
18.432,-0.03,1.54,0.48,1.62
18.442,2.20,3.33,-0.50,4.02
18.452,3.75,4.41,0.66,5.83
18.462,3.41,4.41,0.38,5.59
18.472,2.01,3.97,-2.34,5.03
18.482,1.01,3.55,-3.25,4.92
18.492,0.44,2.89,-2.75,4.01
18.502,0.32,2.07,-2.79,3.49
18.512,0.21,1.29,-3.27,3.52
18.522,-0.43,0.72,-3.23,3.34
18.532,-1.06,0.57,-2.33,2.63
18.542,-1.28,0.43,-1.17,1.79
18.552,-1.38,0.16,-0.55,1.50
18.562,-1.11,0.18,-0.06,1.13
18.572,-0.43,0.47,0.11,0.64
18.582,0.31,0.82,0.02,0.87
18.592,0.99,1.25,-0.15,1.60
18.602,1.30,1.59,-0.48,2.11
18.612,1.19,1.69,-0.97,2.28
18.622,0.83,1.67,-1.00,2.12
18.632,0.27,1.44,-0.86,1.70
18.642,-0.25,1.16,-0.93,1.50
18.652,-0.80,0.96,-0.99,1.59
18.662,-1.39,0.83,-0.78,1.79
18.672,-1.66,0.78,-0.68,1.96
18.682,-1.74,0.75,-0.59,1.99
18.692,-1.61,0.66,-0.51,1.81
18.702,-1.24,0.44,-0.39,1.37
18.712,-0.79,0.10,-0.05,0.79
18.722,-0.37,-0.38,0.17,0.56
18.741,-0.20,-0.81,0.43,0.93
18.742,-0.38,-1.08,0.73,1.36
18.753,-0.76,-1.22,0.80,1.64
18.762,-1.07,-1.23,0.85,1.84
18.772,-1.20,-1.28,1.05,2.04
18.782,-1.23,-1.36,1.24,2.22
18.793,-1.20,-1.25,1.44,2.25
18.803,-1.40,-1.17,1.49,2.35
18.813,-1.66,-0.97,1.52,2.45
18.823,-1.92,-0.76,1.59,2.61
18.833,-1.98,-0.69,1.49,2.57
18.842,-1.73,-0.82,1.35,2.34
18.853,-1.32,-0.82,1.41,2.10
18.863,-1.14,-0.60,1.59,2.05
18.873,-1.10,-0.20,1.54,1.90
18.882,-1.09,0.16,1.64,1.98
18.893,-1.01,0.29,1.64,1.95
18.903,-0.71,0.44,1.70,1.89
18.913,-0.36,0.47,1.74,1.84
18.923,-0.03,0.33,1.73,1.76
18.933,0.02,-0.21,1.93,1.94
18.943,0.12,-1.77,2.12,2.77
18.953,1.01,-2.08,2.24,3.22
18.963,0.94,-1.63,2.26,2.94
18.973,0.69,-1.30,2.07,2.54
18.983,0.20,-1.08,2.02,2.30
18.993,-0.40,-1.75,1.75,2.50
19.003,-0.52,-2.10,1.67,2.73
19.013,-0.33,-1.61,1.90,2.51
19.023,-0.08,-0.70,2.14,2.26
19.033,-0.29,0.33,2.14,2.19
19.043,-0.41,1.13,1.78,2.15
19.053,0.72,1.77,1.26,2.29
19.063,2.48,3.05,1.01,4.06
19.073,2.59,3.85,0.30,4.65
19.083,2.27,2.98,-1.34,3.97
19.093,2.47,2.13,-2.59,4.17
19.103,1.94,1.82,-3.91,4.73
19.113,0.57,2.13,-4.51,5.02
19.123,-0.35,2.97,-4.88,5.73
19.133,-0.23,3.78,-4.67,6.01
19.143,0.90,4.17,-3.32,5.40
19.153,2.34,4.01,-2.27,5.17
19.163,3.23,3.40,-1.38,4.88
19.173,2.61,1.96,-1.28,3.51
19.183,1.49,0.37,-0.98,1.82
19.193,0.59,-0.69,-0.27,0.94
19.203,-0.09,-1.42,-0.01,1.42
19.213,-0.24,-1.97,0.22,1.99
19.223,-0.12,-2.07,0.00,2.08
19.233,0.28,-1.48,-0.15,1.51
19.243,0.64,-0.56,-0.34,0.91
19.253,0.72,0.21,-0.49,0.89
19.263,0.76,0.88,-0.67,1.34
19.273,0.53,1.55,-0.90,1.87
19.283,-0.06,2.00,-1.01,2.24
19.293,-0.63,2.14,-0.94,2.42
19.303,-0.83,2.01,-0.72,2.29
19.313,-0.79,1.69,-0.55,1.95
19.323,-0.69,1.26,-0.30,1.47
19.333,-0.76,0.79,0.09,1.10
19.343,-0.84,0.34,0.50,1.04
19.353,-0.83,-0.04,0.83,1.17
19.363,-0.88,-0.30,0.93,1.31
19.373,-1.13,-0.41,0.98,1.55
19.383,-1.42,-0.41,0.99,1.78
19.393,-1.69,-0.34,0.89,1.94
19.403,-1.95,-0.27,0.73,2.10
19.413,-2.00,-0.14,0.55,2.08
19.423,-1.96,0.04,0.50,2.03
19.433,-1.98,0.10,0.59,2.07
19.443,-1.76,0.08,0.76,1.92
19.453,-1.42,0.02,0.65,1.56
19.463,-1.14,0.02,0.67,1.32
19.473,-1.00,0.22,0.92,1.37
19.483,-1.11,0.45,1.19,1.69
19.493,-1.36,0.58,1.42,2.05
19.503,-1.45,0.55,1.55,2.19
19.513,-1.23,0.34,1.65,2.09
19.523,-0.99,0.16,1.78,2.04
19.533,-0.96,-0.08,1.80,2.05
19.543,-0.98,-0.25,1.84,2.10
19.553,-0.91,-0.36,2.02,2.24
19.563,-0.63,-0.43,2.11,2.24
19.573,-0.19,-0.51,2.27,2.34
19.583,0.29,-0.55,2.38,2.46
19.593,0.64,-0.41,1.94,2.09
19.603,0.61,-0.11,1.47,1.59
19.613,0.36,0.32,1.77,1.83
19.623,0.66,0.87,1.74,2.05
19.633,1.65,1.20,1.55,2.56
19.643,3.06,1.44,1.23,3.60
19.653,4.50,1.69,1.46,5.02
19.663,5.44,1.57,1.60,5.89
19.673,5.82,1.33,1.80,6.24
19.683,4.75,1.21,1.62,5.16
19.693,2.76,1.55,1.74,3.62
19.703,1.20,1.80,2.45,3.27
19.713,0.48,1.46,1.68,2.27
19.723,0.72,1.08,0.93,1.60
19.733,1.18,1.01,0.15,1.56
19.743,1.41,0.98,-0.71,1.86
19.753,1.71,0.92,-1.18,2.27
19.763,1.73,0.93,-1.83,2.69
19.773,1.34,0.95,-1.92,2.52
19.783,0.86,0.86,-1.65,2.05
19.793,0.66,0.88,-1.80,2.11
19.804,0.53,1.01,-1.96,2.26
19.813,0.55,1.22,-1.90,2.32
19.823,0.69,1.42,-1.91,2.48
19.833,0.86,1.35,-2.00,2.56
19.843,1.23,1.21,-1.72,2.44
19.853,1.60,1.10,-1.41,2.40
19.863,1.70,1.03,-1.19,2.32
19.873,1.46,0.99,-1.00,2.02
19.883,1.05,0.92,-0.95,1.69
19.893,0.58,0.72,-0.87,1.27
19.903,0.21,0.39,-0.83,0.94
19.913,-0.16,0.08,-0.90,0.92
19.923,-0.54,-0.02,-0.70,0.89
19.933,-0.95,-0.06,-0.47,1.06
19.943,-1.25,-0.19,-0.60,1.40
19.953,-1.58,-0.35,-0.68,1.76
19.963,-1.94,-0.45,-0.65,2.09
19.973,-2.24,-0.63,-0.66,2.42
19.983,-2.56,-0.77,-0.78,2.78
19.993,-2.87,-0.73,-0.90,3.10
20.003,-3.08,-0.46,-0.96,3.26
20.013,-3.16,-0.10,-1.14,3.37
20.023,-3.26,0.24,-1.18,3.48
20.033,-3.36,0.51,-1.03,3.56
20.043,-3.38,0.53,-0.74,3.50
20.053,-3.23,0.36,-0.57,3.30
20.063,-2.95,0.10,-0.39,2.98
20.073,-2.63,-0.27,-0.42,2.68
20.083,-2.20,-0.62,-0.53,2.35
20.093,-1.79,-0.93,-0.28,2.04
20.103,-1.57,-1.21,-0.24,2.00
20.113,-1.47,-1.25,0.14,1.94
20.123,-1.42,-1.23,-0.28,1.90
20.133,-1.53,-1.09,0.10,1.88
20.143,-1.64,-1.11,-0.24,1.99
20.153,-1.56,-0.82,0.01,1.76
20.164,-1.36,-0.67,-0.20,1.53
20.174,-1.09,-0.89,-0.11,1.41
20.183,-0.57,-0.86,-0.09,1.04
20.194,-0.04,-0.53,0.16,0.55
20.203,0.06,-0.47,0.25,0.53
20.213,0.00,-0.43,0.42,0.60
20.223,0.02,-0.36,0.65,0.74
20.234,0.02,-0.34,0.78,0.85
20.244,0.13,-0.24,1.01,1.05
20.254,0.32,-0.20,1.28,1.34
20.263,0.63,-0.24,1.35,1.51
20.273,1.04,-0.23,1.45,1.80
20.283,1.52,-0.18,1.64,2.24
20.294,1.79,-0.02,1.89,2.60
20.303,1.72,0.14,1.94,2.60
20.314,1.70,0.54,1.68,2.45
20.324,1.66,0.99,0.76,2.08
20.334,1.65,0.51,-0.36,1.76
20.344,2.76,-0.17,-0.60,2.83
20.354,4.00,0.09,-0.08,4.00
20.364,4.39,1.04,0.70,4.56
20.374,4.13,1.17,0.62,4.33
20.384,4.54,1.53,0.02,4.79
20.394,4.48,2.03,-1.02,5.02
20.404,2.94,1.71,-1.62,3.77
20.414,1.60,0.85,-1.48,2.34
20.424,1.44,0.14,-1.34,1.97
20.434,1.89,-0.07,-1.04,2.16
20.444,2.43,-0.01,-0.41,2.46
20.454,3.12,0.18,0.14,3.13
20.464,3.56,0.18,0.48,3.59
20.474,3.34,0.11,0.73,3.42
20.484,2.37,-0.29,0.43,2.43
20.494,1.26,-0.41,-0.22,1.34
20.504,0.30,-0.23,-0.82,0.90
20.514,-0.50,-0.04,-1.13,1.23
20.524,-1.12,0.29,-0.97,1.51
20.534,-1.52,0.45,-0.89,1.82
20.544,-1.79,0.42,-0.90,2.05
20.554,-2.30,0.41,-0.93,2.51
20.564,-2.86,0.35,-0.94,3.04
20.574,-3.15,0.20,-1.15,3.36
20.584,-3.26,-0.08,-1.39,3.55
20.594,-3.33,-0.40,-1.45,3.65
20.604,-3.15,-0.39,-1.72,3.61
20.614,-2.87,-0.43,-1.53,3.28
20.624,-2.67,-0.44,-1.21,2.96
20.634,-2.66,-0.45,-1.06,2.90
20.644,-2.65,-0.34,-0.93,2.83
20.654,-2.67,-0.20,-0.95,2.84
20.664,-2.78,-0.02,-1.12,3.00
20.674,-2.80,0.16,-1.25,3.07
20.684,-2.65,0.26,-1.24,2.94
20.694,-2.48,0.43,-1.14,2.77
20.704,-2.27,0.55,-1.00,2.54
20.714,-1.88,0.66,-0.83,2.16
20.724,-1.53,0.78,-0.61,1.83
20.734,-1.60,0.84,-0.39,1.85
20.744,-1.60,0.68,-0.23,1.75
20.754,-1.23,0.37,-0.24,1.31
20.764,-1.09,0.06,0.16,1.10
20.774,-0.82,-0.23,0.42,0.95
20.784,-0.53,-0.24,0.50,0.77
20.794,-0.39,-0.13,0.38,0.57
20.804,-0.50,0.03,0.24,0.56
20.814,-0.79,0.16,0.17,0.82
20.824,-1.01,0.29,0.23,1.07
20.834,-0.99,0.51,0.33,1.16
20.844,-0.84,0.61,0.34,1.10
20.854,-0.81,0.67,0.32,1.10
20.864,-0.80,0.68,0.28,1.09
20.874,-0.69,0.80,0.17,1.07
20.884,-0.59,0.82,-0.05,1.01
20.894,-0.66,0.53,-0.10,0.85
20.904,-0.76,0.28,0.23,0.84
20.914,-0.56,0.30,0.58,0.86
20.924,-0.35,0.36,0.75,0.90
20.934,-0.26,0.25,0.84,0.92
20.944,-0.12,0.12,1.15,1.16
20.954,0.04,-0.05,1.47,1.47
20.964,0.23,-0.16,1.86,1.88
20.974,0.35,-0.21,2.06,2.10
20.984,0.16,-0.64,1.59,1.72
20.994,0.34,-1.32,2.69,3.02
21.004,0.77,-1.54,3.59,3.98
21.014,0.44,-1.37,1.86,2.35
21.024,0.18,-0.77,1.54,1.73
21.034,1.09,0.26,0.49,1.23
21.044,2.51,1.27,-0.99,2.98
21.054,3.63,1.84,-0.76,4.15
21.064,4.46,1.67,0.05,4.76
21.074,5.46,0.42,1.38,5.65
21.084,6.08,-1.47,2.98,6.93
21.094,5.03,-2.97,3.01,6.57
21.104,2.90,-2.68,2.20,4.52
21.114,0.83,-0.85,1.08,1.61
21.124,-0.44,1.15,-0.33,1.27
21.134,-0.86,2.81,-0.97,3.10
21.144,-1.11,3.29,-1.12,3.65
21.154,-0.74,2.48,-1.45,2.97
21.164,0.60,1.43,-1.39,2.08
21.174,1.38,0.84,-1.43,2.16
21.184,0.82,0.81,-1.49,1.88
21.194,-0.30,0.97,-1.48,1.79
21.204,-1.23,1.07,-1.61,2.29
21.214,-1.27,1.27,-1.43,2.30
21.224,-0.37,1.23,-1.14,1.71
21.234,0.84,0.89,-0.79,1.46
21.244,1.68,0.37,-0.39,1.76
21.254,2.01,-0.31,-0.14,2.04
21.264,2.05,-0.75,-0.00,2.18
21.274,1.80,-0.80,0.12,1.97
21.284,1.22,-0.70,0.15,1.42
21.294,0.28,-0.65,-0.02,0.71
21.304,-0.81,-0.57,-0.42,1.08
21.314,-1.89,-0.27,-0.66,2.02
21.324,-2.63,-0.17,-0.71,2.73
21.334,-2.96,-0.12,-0.96,3.12
21.344,-2.99,0.18,-1.37,3.29
21.354,-2.67,0.01,-1.55,3.09
21.364,-2.26,-0.40,-1.10,2.54
21.374,-2.01,-0.44,-0.67,2.16
21.384,-1.86,-0.54,-0.68,2.05
21.394,-1.64,-0.56,-0.41,1.78
21.404,-1.34,-0.26,-0.37,1.41
21.414,-1.63,-0.15,-0.55,1.73
21.424,-1.94,-0.01,-0.33,1.97
21.434,-1.92,0.02,-0.60,2.01
21.444,-1.69,-0.04,-0.65,1.81
21.454,-1.51,-0.08,-0.51,1.59
21.464,-1.45,-0.22,-0.30,1.50
21.474,-1.38,-0.42,-0.61,1.56
21.484,-1.28,-0.45,-0.76,1.55
21.495,-1.24,-0.38,-0.65,1.45
21.504,-1.11,-0.28,-0.65,1.32
21.514,-1.02,0.05,-0.68,1.23
21.524,-1.04,0.38,-0.50,1.21
21.534,-1.20,0.49,-0.53,1.40
21.545,-1.21,0.50,-0.40,1.37
21.554,-1.19,0.32,-0.21,1.25
21.564,-0.98,0.06,-0.08,0.98
21.574,-0.54,-0.23,-0.00,0.59
21.584,-0.03,-0.54,0.10,0.55
21.595,0.43,-0.80,0.08,0.92
21.605,0.58,-0.67,0.13,0.90
21.614,0.28,-0.43,0.11,0.53
21.624,-0.11,-0.17,-0.01,0.20
21.634,-0.36,-0.13,-0.15,0.41
21.645,-0.40,-0.01,-0.07,0.41
21.655,-0.34,-0.06,-0.18,0.39
21.664,-0.32,0.06,0.08,0.34
21.674,-0.36,-0.11,-0.10,0.39
21.684,-0.31,-0.20,-0.09,0.38
21.694,-0.24,-0.28,-0.08,0.38
21.704,0.03,-0.54,0.02,0.54
21.714,0.21,-0.77,0.16,0.82
21.724,-0.15,-0.50,0.08,0.53
21.734,-0.30,-0.22,0.11,0.39
21.744,0.17,0.08,0.31,0.37
21.754,0.74,-0.18,0.33,0.83
21.765,0.77,-0.53,0.37,1.01
21.775,0.87,-0.35,0.62,1.13
21.785,1.03,-0.14,0.75,1.29
21.794,0.93,-0.30,0.89,1.32
21.805,0.31,-0.09,0.92,0.97
21.814,-0.33,0.25,0.89,0.98
21.825,0.56,-0.40,0.93,1.16
21.835,0.07,-0.99,0.74,1.24
21.845,0.19,-0.52,1.26,1.38
21.855,0.23,0.12,0.69,0.73
21.865,-0.45,0.38,0.53,0.79
21.875,-0.60,0.46,0.07,0.76
21.885,0.26,0.37,0.28,0.53
21.895,0.55,0.10,-0.75,0.94
21.905,0.80,-0.14,0.35,0.88
21.915,2.41,-0.97,0.22,2.61
21.925,2.98,-0.39,0.87,3.13
21.935,2.96,-0.56,0.41,3.04
21.945,1.69,-0.71,1.10,2.14
21.955,1.62,-0.30,0.13,1.66
21.965,1.45,-0.06,0.56,1.56
21.975,1.86,-0.33,0.40,1.93
21.985,1.91,-0.34,0.06,1.94
21.995,1.77,-0.09,0.17,1.78
22.005,1.62,0.00,0.11,1.62
22.015,1.81,0.22,-0.09,1.82
22.025,1.52,0.31,-0.39,1.60
22.035,0.74,0.29,-0.71,1.07
22.045,0.91,0.39,-0.69,1.21
22.055,1.29,0.61,-0.57,1.54
22.065,1.03,0.96,-0.67,1.56
22.075,-0.06,1.43,-0.86,1.67
22.085,-0.64,1.75,-0.89,2.06
22.095,-0.23,1.05,-0.76,1.32
22.105,0.26,0.51,-0.28,0.64
22.115,0.31,0.65,-0.12,0.73
22.125,0.02,0.73,-0.10,0.73
22.135,-0.29,0.48,0.05,0.56
22.145,-0.56,0.39,0.05,0.68
22.155,-0.72,0.67,0.09,0.99
22.165,-0.96,0.69,-0.21,1.21
22.175,-1.34,0.62,-0.12,1.48
22.185,-1.00,0.52,-0.13,1.13
22.195,-0.82,0.24,-0.13,0.86
22.205,-0.78,0.21,0.04,0.81
22.215,-1.16,0.23,0.18,1.20
22.225,-1.42,0.06,0.33,1.46
22.235,-1.30,-0.26,0.39,1.38
22.245,-1.60,-0.19,0.15,1.62
22.255,-1.87,-0.08,-0.08,1.88
22.265,-1.74,-0.20,-0.09,1.76
22.275,-1.37,-0.32,0.01,1.41
22.285,-0.77,-0.15,-0.06,0.78
22.295,-0.77,0.10,-0.19,0.80
22.305,-1.25,0.19,-0.11,1.26
22.315,-1.72,0.18,-0.03,1.73
22.325,-1.92,0.15,0.05,1.92
22.335,-2.06,0.11,-0.04,2.07
22.345,-1.87,-0.09,-0.01,1.87
22.355,-1.41,-0.07,0.15,1.42
22.365,-0.77,0.22,0.30,0.86
22.375,-0.37,0.50,0.08,0.63
22.385,-0.55,0.60,-0.07,0.82
22.395,-0.82,0.58,-0.02,1.01
22.405,-0.75,0.34,0.09,0.83
22.415,-0.66,0.47,0.29,0.86
22.425,-0.71,0.35,0.18,0.81
22.435,-0.72,0.09,0.36,0.81
22.445,-0.53,-0.00,0.50,0.73
22.455,-0.36,0.18,0.46,0.60
22.465,-0.22,0.25,0.44,0.55
22.475,-0.19,0.26,0.28,0.42
22.485,-0.36,0.21,0.31,0.53
22.495,-0.46,0.41,0.46,0.77
22.505,-0.47,0.59,0.33,0.83
22.515,-0.52,0.61,0.45,0.92
22.525,-0.76,0.82,0.43,1.20
22.535,-0.81,0.57,-0.01,0.99
22.545,-0.66,0.10,0.02,0.67
22.555,-0.88,0.28,0.23,0.95
22.565,-0.63,0.50,0.45,0.92
22.575,-0.43,0.56,0.36,0.79
22.585,-0.58,0.40,0.26,0.75
22.595,-0.79,0.38,0.43,0.98
22.605,-0.65,0.37,0.41,0.86
22.615,-0.63,0.27,0.54,0.87
22.625,-0.94,0.40,0.68,1.23
22.635,-0.94,0.55,0.68,1.28
22.645,-0.65,0.81,1.17,1.56
22.655,-0.38,0.72,1.07,1.34
22.665,-0.17,0.54,1.09,1.23
22.675,-0.08,0.37,1.32,1.37
22.685,0.09,0.18,1.45,1.46
22.695,0.04,-0.13,1.47,1.48
22.705,0.24,-0.17,1.63,1.65
22.715,0.52,-0.11,1.50,1.59
22.725,0.51,-0.01,1.14,1.25
