time,ax,ay,az,atotal
0.000,-0.29,0.13,0.13,0.34
0.010,-0.15,0.14,0.12,0.24
0.020,-0.04,0.15,0.10,0.18
0.030,-0.08,0.19,0.04,0.21
0.040,-0.13,0.16,0.01,0.21
0.050,-0.16,0.13,0.03,0.21
0.060,-0.15,0.04,0.04,0.16
0.070,-0.12,-0.04,0.04,0.14
0.080,-0.18,0.06,0.09,0.21
0.090,-0.18,0.13,0.12,0.25
0.100,-0.15,0.13,0.09,0.22
0.110,-0.19,0.13,0.05,0.23
0.120,-0.21,0.13,0.01,0.25
0.130,-0.25,0.16,0.02,0.30
0.140,-0.28,0.23,0.01,0.36
0.150,-0.23,0.22,0.00,0.32
0.160,-0.14,0.20,-0.04,0.25
0.170,-0.06,0.17,-0.07,0.19
0.180,0.03,0.14,-0.06,0.16
0.190,0.09,0.07,-0.05,0.13
0.200,0.13,0.04,-0.03,0.13
0.210,0.13,0.09,-0.07,0.18
0.220,0.00,0.16,-0.07,0.17
0.230,-0.14,0.17,0.00,0.22
0.240,-0.21,0.07,0.02,0.22
0.250,-0.22,-0.08,0.03,0.24
0.260,-0.20,-0.17,0.01,0.27
0.270,-0.13,-0.23,0.03,0.26
0.280,-0.10,-0.21,0.03,0.24
0.290,-0.12,-0.21,0.01,0.24
0.300,-0.09,-0.19,0.01,0.21
0.310,-0.08,-0.22,0.03,0.24
0.320,-0.13,-0.26,-0.05,0.30
0.330,-0.14,-0.25,-0.21,0.35
0.340,-0.08,-0.17,-0.24,0.30
0.350,0.08,-0.08,-0.32,0.35
0.360,0.15,0.02,-0.41,0.44
0.370,0.08,0.14,-0.47,0.50
0.380,-0.01,0.24,-0.60,0.64
0.390,-0.10,0.29,-0.74,0.80
0.400,-0.05,0.35,-0.85,0.92
0.410,0.07,0.37,-0.91,0.99
0.420,0.18,0.42,-0.97,1.08
0.430,0.22,0.50,-0.93,1.08
0.440,0.14,0.53,-0.81,0.98
0.450,-0.01,0.46,-0.72,0.85
0.460,-0.17,0.38,-0.59,0.72
0.470,-0.38,0.32,-0.33,0.60
0.480,-0.54,0.23,-0.08,0.60
0.490,-0.57,0.08,0.12,0.59
0.500,-0.56,-0.10,0.32,0.65
0.511,-0.50,-0.29,0.58,0.82
0.521,-0.39,-0.48,0.89,1.09
0.530,-0.25,-0.62,1.08,1.27
0.540,-0.08,-0.74,1.20,1.41
0.550,0.06,-0.89,1.38,1.64
0.560,0.17,-1.00,1.42,1.74
0.570,0.19,-1.06,1.37,1.74
0.581,0.10,-1.00,1.26,1.61
0.591,-0.05,-0.87,1.14,1.44
0.601,-0.21,-0.68,1.06,1.28
0.611,-0.30,-0.49,0.91,1.08
0.621,-0.34,-0.27,0.79,0.90
0.631,-0.33,-0.12,0.70,0.78
0.641,-0.24,-0.03,0.66,0.70
0.651,-0.18,-0.02,0.65,0.67
0.661,-0.19,-0.07,0.62,0.65
0.671,-0.30,-0.16,0.62,0.71
0.681,-0.49,-0.21,0.66,0.85
0.691,-0.65,-0.27,0.71,1.00
0.701,-0.65,-0.34,0.70,1.01
0.711,-0.63,-0.40,0.67,1.00
0.721,-0.59,-0.39,0.66,0.96
0.731,-0.51,-0.38,0.65,0.91
0.741,-0.39,-0.34,0.62,0.81
0.751,-0.28,-0.20,0.64,0.72
0.761,-0.20,-0.09,0.67,0.70
0.771,-0.20,-0.11,0.60,0.64
0.781,-0.24,-0.22,0.40,0.52
0.791,-0.25,-0.24,0.16,0.38
0.801,-0.28,-0.03,0.07,0.29
0.811,-0.32,0.17,0.08,0.37
0.821,-0.37,0.21,0.10,0.43
0.831,-0.41,0.12,0.15,0.45
0.841,-0.41,0.02,0.16,0.45
0.851,-0.45,0.03,0.22,0.50
0.861,-0.46,0.03,0.27,0.53
0.871,-0.53,0.03,0.27,0.60
0.881,-0.60,0.00,0.26,0.66
0.891,-0.74,-0.05,0.25,0.78
0.901,-0.88,-0.08,0.27,0.92
0.911,-0.97,-0.12,0.27,1.01
0.921,-0.99,-0.20,0.17,1.02
0.931,-0.95,-0.25,0.16,0.99
0.941,-0.87,-0.27,0.21,0.93
0.951,-0.81,-0.28,0.25,0.90
0.961,-0.83,-0.30,0.26,0.92
0.971,-0.91,-0.31,0.27,1.00
0.981,-1.04,-0.30,0.30,1.13
0.991,-1.11,-0.31,0.33,1.19
1.001,-1.15,-0.30,0.31,1.23
1.011,-1.18,-0.32,0.22,1.24
1.021,-1.17,-0.39,0.01,1.24
1.031,-1.17,-0.35,-0.06,1.22
1.041,-1.09,-0.31,0.09,1.14
1.051,-0.96,-0.30,0.16,1.02
1.061,-0.86,-0.20,0.17,0.90
1.071,-0.77,0.08,0.22,0.80
1.081,-0.86,0.38,0.36,1.01
1.091,-1.02,0.52,0.46,1.23
1.101,-1.07,0.53,0.45,1.28
1.111,-1.09,0.44,0.51,1.28
1.121,-1.12,0.28,0.61,1.31
1.131,-1.08,0.11,0.71,1.29
1.141,-0.99,0.04,0.84,1.30
1.151,-0.83,0.10,0.94,1.26
1.161,-0.74,0.12,0.90,1.17
1.171,-0.77,0.06,0.59,0.97
1.181,-0.78,-0.03,0.27,0.83
1.191,-0.85,-0.17,0.18,0.88
1.201,-0.88,-0.33,0.34,1.00
1.211,-0.80,-0.49,0.50,1.06
1.221,-0.56,-0.42,0.64,0.95
1.231,-0.45,-0.15,0.84,0.96
1.241,-0.46,0.21,0.97,1.10
1.251,-0.60,0.40,0.91,1.16
1.261,-0.84,0.34,0.61,1.09
1.271,-1.19,0.19,0.39,1.27
1.281,-1.60,0.01,0.38,1.64
1.291,-1.79,-0.06,0.58,1.88
1.301,-1.58,0.09,0.98,1.86
1.311,-1.15,0.44,1.27,1.77
1.321,-0.66,0.92,1.20,1.65
1.331,-0.34,1.33,0.79,1.59
1.341,-0.26,1.59,0.12,1.61
1.351,-0.58,1.65,-0.23,1.76
1.361,-1.38,1.28,-0.65,1.99
1.371,-2.02,0.74,-1.28,2.51
1.381,-1.96,0.58,-1.20,2.37
1.391,-1.60,0.66,-1.19,2.09
1.401,-1.30,0.79,-1.24,1.97
1.411,-0.71,1.02,-0.89,1.53
1.421,0.44,0.84,-1.21,1.54
1.431,1.86,0.49,-1.73,2.59
1.441,2.67,0.23,-2.46,3.64
1.451,3.03,0.04,-2.42,3.88
1.461,3.51,0.13,-1.56,3.84
1.471,3.57,0.44,-0.94,3.72
1.481,2.20,0.72,-1.09,2.56
1.491,0.79,0.53,-1.53,1.80
1.501,1.14,0.10,-1.70,2.04
1.511,3.29,-0.45,-1.80,3.78
1.521,6.44,-0.62,-1.81,6.72
1.531,8.43,-0.12,-1.15,8.51
1.541,7.28,0.28,-0.20,7.29
1.551,3.76,0.04,0.39,3.78
1.561,1.61,-0.26,0.89,1.86
1.572,0.43,-0.64,1.13,1.37
1.582,-0.53,-1.07,1.39,1.83
1.592,-1.14,-1.59,1.47,2.45
1.602,-1.26,-2.04,1.30,2.73
1.612,-1.19,-2.34,0.90,2.78
1.622,-0.70,-2.36,0.40,2.49
1.632,0.03,-1.86,-0.06,1.86
1.642,0.61,-0.98,-0.41,1.22
1.652,1.11,-0.08,-0.74,1.34
1.662,1.40,0.78,-0.87,1.82
1.672,1.24,1.48,-0.85,2.11
1.682,0.84,1.89,-0.76,2.20
1.692,0.33,1.99,-0.64,2.11
1.702,-0.17,1.80,-0.52,1.88
1.712,-0.59,1.48,-0.37,1.63
1.722,-0.91,1.14,-0.26,1.48
1.732,-1.05,0.78,-0.14,1.32
1.742,-1.04,0.41,-0.01,1.11
1.752,-0.80,-0.05,0.09,0.81
1.762,-0.34,-0.56,0.06,0.66
1.772,-0.01,-0.92,-0.05,0.92
1.782,0.12,-1.06,-0.17,1.08
1.792,0.16,-0.95,-0.31,1.02
1.802,0.17,-0.70,-0.43,0.83
1.812,0.15,-0.38,-0.49,0.64
1.822,-0.01,-0.14,-0.44,0.46
1.832,-0.22,0.03,-0.34,0.41
1.842,-0.39,0.12,-0.19,0.45
1.852,-0.45,0.08,-0.12,0.47
1.862,-0.48,-0.08,-0.08,0.49
1.872,-0.45,-0.27,0.01,0.53
1.882,-0.39,-0.48,0.05,0.62
1.892,-0.25,-0.55,-0.03,0.61
1.902,-0.14,-0.47,-0.16,0.52
1.912,-0.10,-0.34,-0.29,0.46
1.922,-0.02,-0.19,-0.35,0.40
1.932,-0.02,-0.01,-0.43,0.43
1.942,-0.04,0.13,-0.49,0.51
1.952,-0.10,0.22,-0.50,0.56
1.962,-0.13,0.22,-0.50,0.56
1.972,-0.13,0.16,-0.44,0.48
1.982,-0.17,0.08,-0.37,0.42
1.992,-0.25,-0.00,-0.33,0.41
2.002,-0.30,-0.10,-0.29,0.43
2.012,-0.29,-0.14,-0.25,0.40
2.022,-0.33,-0.18,-0.18,0.42
2.032,-0.38,-0.20,-0.19,0.47
2.042,-0.50,-0.19,-0.22,0.57
2.052,-0.58,-0.22,-0.24,0.66
2.062,-0.61,-0.31,-0.28,0.74
2.072,-0.60,-0.45,-0.33,0.82
2.082,-0.58,-0.57,-0.37,0.89
2.092,-0.58,-0.66,-0.40,0.96
2.102,-0.57,-0.63,-0.50,0.98
2.112,-0.70,-0.57,-0.55,1.06
2.122,-0.92,-0.48,-0.57,1.19
2.132,-1.18,-0.37,-0.49,1.33
2.142,-1.43,-0.29,-0.32,1.50
2.152,-1.57,-0.28,-0.19,1.60
2.162,-1.46,-0.30,-0.13,1.49
2.172,-1.18,-0.41,-0.07,1.25
2.182,-0.85,-0.50,-0.00,0.99
2.192,-0.68,-0.48,-0.01,0.84
2.202,-0.80,-0.40,0.10,0.90
2.212,-0.95,-0.38,0.31,1.07
2.222,-1.21,-0.68,0.31,1.42
2.232,-1.42,-1.13,0.08,1.81
2.242,-1.43,-1.41,-0.15,2.02
2.252,-1.49,-1.48,-0.41,2.13
2.262,-1.85,-1.24,-0.68,2.33
2.272,-2.30,-0.78,-0.99,2.62
2.282,-2.45,-0.15,-1.30,2.77
2.292,-2.19,0.50,-1.32,2.61
2.302,-1.78,0.91,-0.93,2.21
2.312,-1.42,0.94,-0.62,1.81
2.322,-1.08,0.60,-0.53,1.34
2.332,-0.79,-0.13,-0.45,0.92
2.342,-0.72,-1.00,-0.27,1.26
2.352,-0.91,-1.62,-0.03,1.86
2.362,-1.13,-1.73,-0.18,2.07
2.372,-1.45,-1.41,-0.36,2.06
2.382,-1.68,-1.14,-0.24,2.05
2.392,-1.46,-1.02,-0.28,1.81
2.402,-1.09,-0.88,-0.39,1.45
2.412,-0.75,-0.73,-0.40,1.12
2.422,-0.55,-0.64,-0.41,0.94
2.432,-0.53,-0.70,-0.53,1.02
2.442,-0.62,-0.81,-0.60,1.18
2.452,-0.71,-0.88,-0.47,1.23
2.462,-0.68,-0.89,0.04,1.13
2.472,-0.58,-1.18,0.33,1.35
2.482,-0.07,-1.42,0.51,1.51
2.492,0.62,-1.45,0.80,1.77
2.502,1.04,-1.25,0.89,1.85
2.512,1.18,-0.73,0.66,1.54
2.522,1.22,0.16,0.41,1.29
2.532,1.61,1.10,0.73,2.08
2.542,2.42,1.44,1.20,3.06
2.552,3.48,0.91,0.78,3.68
2.562,4.52,0.26,0.16,4.53
2.572,4.85,0.15,-0.29,4.86
2.582,4.36,0.58,-0.57,4.44
2.592,3.33,1.25,-0.48,3.58
2.602,2.18,2.14,0.18,3.06
2.612,1.61,2.96,0.89,3.49
2.622,1.74,3.23,0.99,3.80
2.632,2.39,2.90,0.67,3.82
2.642,3.15,2.14,0.45,3.83
2.652,3.40,1.19,0.11,3.60
2.662,2.89,0.32,-0.04,2.91
2.672,1.99,-0.42,-0.01,2.04
2.683,1.09,-0.97,0.25,1.49
2.693,0.30,-1.42,0.28,1.48
2.703,-0.32,-1.65,0.23,1.70
2.713,-0.74,-1.45,0.26,1.65
2.722,-1.02,-0.78,0.42,1.35
2.733,-1.07,0.12,0.67,1.27
2.743,-0.70,0.88,0.79,1.37
2.753,-0.09,1.42,0.67,1.58
2.763,0.45,1.69,0.58,1.85
2.773,0.54,1.69,0.54,1.85
2.783,0.28,1.49,0.45,1.58
2.793,0.01,1.13,0.24,1.15
2.803,-0.18,0.80,0.09,0.82
2.813,-0.39,0.53,-0.09,0.66
2.823,-0.62,0.34,-0.30,0.76
2.833,-0.74,0.24,-0.50,0.93
2.843,-0.81,0.25,-0.62,1.05
2.853,-0.85,0.36,-0.61,1.10
2.863,-0.81,0.52,-0.52,1.09
2.873,-0.66,0.75,-0.36,1.06
2.883,-0.45,0.91,-0.21,1.03
2.893,-0.27,0.99,-0.10,1.03
2.903,-0.14,1.04,-0.04,1.04
2.913,-0.08,1.03,0.06,1.03
2.923,-0.18,0.93,0.17,0.96
2.933,-0.34,0.74,0.25,0.86
2.943,-0.45,0.49,0.32,0.73
2.953,-0.51,0.16,0.36,0.65
2.963,-0.56,-0.12,0.39,0.69
2.973,-0.59,-0.36,0.37,0.79
2.983,-0.65,-0.49,0.42,0.91
2.993,-0.79,-0.52,0.46,1.05
3.003,-0.95,-0.41,0.50,1.15
3.013,-1.08,-0.27,0.58,1.25
3.023,-1.12,-0.14,0.69,1.32
3.033,-1.13,-0.07,0.73,1.35
3.043,-1.11,-0.06,0.80,1.37
3.053,-1.10,-0.05,0.92,1.43
3.063,-1.11,-0.11,1.07,1.54
3.073,-1.14,-0.25,1.11,1.61
3.083,-1.19,-0.41,1.01,1.62
3.093,-1.26,-0.53,0.86,1.62
3.103,-1.29,-0.58,0.69,1.58
3.113,-1.22,-0.62,0.49,1.46
3.123,-1.11,-0.54,0.35,1.29
3.133,-1.10,-0.36,0.28,1.19
3.143,-1.24,-0.10,0.22,1.26
3.153,-1.40,0.23,0.14,1.43
3.163,-1.57,0.55,0.09,1.67
3.173,-1.79,0.73,0.10,1.93
3.183,-1.99,0.77,0.14,2.13
3.193,-2.07,0.68,0.03,2.18
3.203,-2.02,0.55,-0.32,2.12
3.213,-1.77,0.59,-0.50,1.93
3.223,-1.35,0.75,-0.40,1.60
3.233,-0.90,0.89,-0.45,1.34
3.243,-0.61,0.95,-0.50,1.23
3.253,-0.69,0.84,-0.36,1.14
3.263,-0.92,0.61,-0.29,1.14
3.273,-1.18,0.37,-0.43,1.31
3.283,-1.54,0.21,-0.60,1.66
3.293,-1.91,0.17,-0.43,1.96
3.303,-2.06,0.26,-0.05,2.07
3.313,-1.86,0.40,0.13,1.91
3.323,-1.54,0.66,0.27,1.69
3.333,-1.37,0.82,0.64,1.72
3.343,-1.30,0.62,0.82,1.66
3.353,-1.29,0.28,0.81,1.56
3.363,-1.45,-0.01,0.70,1.61
3.373,-1.74,-0.40,0.43,1.84
3.383,-1.99,-0.54,0.42,2.10
3.393,-2.00,-0.55,0.40,2.11
3.403,-1.63,-0.63,0.06,1.74
3.413,-1.02,-0.54,-0.42,1.23
3.423,-0.21,-0.30,-0.80,0.88
3.433,1.33,-0.07,-1.05,1.70
3.443,3.16,0.44,-1.53,3.54
3.453,4.43,1.35,-1.97,5.03
3.463,5.01,2.40,-1.77,5.83
3.473,5.01,3.25,-1.48,6.16
3.483,4.44,3.91,-1.55,6.12
3.493,3.00,4.05,-1.59,5.28
3.503,1.63,3.38,-1.67,4.10
3.513,1.71,2.33,-1.63,3.32
3.523,2.92,0.96,-1.39,3.37
3.533,4.56,-0.34,-1.10,4.70
3.543,5.80,-1.30,-0.40,5.96
3.553,6.05,-2.04,0.29,6.39
3.563,5.11,-2.42,0.54,5.68
3.573,3.31,-2.16,0.76,4.03
3.583,1.38,-1.65,1.19,2.46
3.593,0.05,-1.30,1.34,1.87
3.603,-0.90,-0.95,1.53,2.01
3.613,-1.44,-0.72,1.41,2.14
3.623,-1.51,-0.67,1.07,1.97
3.633,-1.33,-0.78,0.66,1.68
3.643,-0.79,-0.98,0.36,1.31
3.653,-0.19,-1.08,0.08,1.10
3.663,0.23,-0.94,-0.05,0.97
3.673,0.39,-0.61,-0.15,0.74
3.683,0.61,-0.36,-0.29,0.76
3.693,0.67,-0.25,-0.43,0.84
3.704,0.48,-0.21,-0.48,0.71
3.713,0.21,-0.20,-0.50,0.58
3.724,-0.10,-0.18,-0.38,0.44
3.733,-0.28,-0.18,-0.27,0.43
3.743,-0.30,-0.09,-0.19,0.37
3.754,-0.24,0.05,-0.05,0.25
3.763,-0.31,0.15,0.03,0.35
3.774,-0.52,0.14,0.11,0.55
3.783,-0.56,-0.06,0.20,0.59
3.793,-0.55,-0.35,0.23,0.70
3.803,-0.53,-0.58,0.17,0.81
3.814,-0.47,-0.72,0.16,0.87
3.824,-0.37,-0.85,0.15,0.94
3.834,-0.28,-0.91,0.07,0.96
3.844,-0.16,-0.90,0.02,0.91
3.854,-0.06,-0.79,-0.01,0.79
3.863,0.02,-0.64,-0.03,0.64
3.874,0.03,-0.49,-0.02,0.49
3.884,-0.12,-0.33,-0.08,0.36
3.894,-0.31,-0.20,-0.14,0.39
3.904,-0.48,-0.06,-0.17,0.51
3.914,-0.68,0.06,-0.16,0.70
3.924,-0.86,0.15,-0.28,0.91
3.934,-0.99,0.23,-0.33,1.07
3.944,-1.04,0.20,-0.34,1.11
3.954,-1.02,0.13,-0.34,1.08
3.964,-0.98,0.08,-0.39,1.06
3.974,-1.05,0.11,-0.45,1.15
3.984,-1.25,0.16,-0.58,1.39
3.994,-1.51,0.29,-0.56,1.64
4.004,-1.98,0.36,-0.60,2.10
4.014,-2.45,0.34,-0.84,2.61
4.024,-2.81,0.25,-1.02,3.00
4.034,-3.05,0.16,-1.13,3.25
4.044,-3.11,0.13,-1.26,3.36
4.054,-3.08,0.20,-1.39,3.39
4.064,-2.95,0.34,-1.37,3.27
4.074,-2.59,0.40,-1.20,2.88
4.084,-1.98,0.36,-0.71,2.14
4.094,-1.26,0.03,-0.34,1.31
4.104,-0.53,-0.45,-0.39,0.80
4.114,0.15,-1.01,-0.35,1.07
4.124,0.47,-1.70,-0.51,1.84
4.134,0.57,-2.11,-0.87,2.35
4.144,0.34,-1.98,-1.10,2.29
4.154,-0.23,-1.43,-0.98,1.75
4.164,-0.89,-0.71,-0.98,1.50
4.174,-1.31,-0.08,-0.81,1.54
4.184,-1.27,0.11,-0.48,1.36
4.194,-0.78,-0.13,-0.09,0.79
4.204,-0.17,-0.60,0.35,0.71
4.214,0.24,-1.12,0.46,1.23
4.224,0.32,-1.48,0.29,1.54
4.234,0.04,-1.43,0.18,1.44
4.244,-0.53,-1.03,0.15,1.17
4.254,-1.11,-0.49,0.16,1.23
4.264,-1.48,0.04,0.43,1.54
4.274,-1.47,0.16,0.76,1.66
4.284,-1.14,-0.20,0.84,1.43
4.294,-0.58,-0.82,0.86,1.33
4.304,-0.37,-1.58,0.56,1.72
4.314,-0.01,-1.78,0.25,1.80
4.324,0.24,-1.29,-0.04,1.31
4.334,0.08,-0.31,-0.37,0.49
4.344,-0.04,0.88,-0.33,0.94
4.354,0.07,2.08,-0.15,2.09
4.364,0.50,2.92,-0.00,2.96
4.374,1.50,2.89,0.45,3.29
4.384,3.05,1.69,0.83,3.58
4.394,4.30,-0.22,0.82,4.39
4.404,5.18,-1.54,0.37,5.41
4.414,5.11,-1.83,-0.10,5.43
4.424,4.19,-1.23,0.11,4.37
4.434,3.02,-0.23,0.77,3.12
4.444,1.96,0.62,1.20,2.38
4.454,1.89,1.17,0.69,2.33
4.464,2.41,1.74,0.06,2.97
4.474,3.08,2.44,-0.08,3.93
4.484,3.53,3.08,0.08,4.69
4.494,3.29,3.53,0.04,4.82
4.504,2.59,3.54,0.23,4.39
4.514,1.68,2.97,0.49,3.45
4.524,0.77,1.88,0.51,2.09
4.534,0.04,0.56,0.48,0.74
4.544,-0.51,-0.65,0.50,0.97
4.554,-0.96,-1.59,0.61,1.95
4.564,-1.22,-2.22,0.87,2.68
4.574,-1.26,-2.48,1.03,2.96
4.584,-0.93,-2.24,0.95,2.60
4.594,-0.36,-1.47,0.71,1.68
4.604,0.02,-0.36,0.40,0.54
4.614,0.02,0.82,0.17,0.84
4.624,-0.21,1.80,-0.01,1.81
4.634,-0.37,2.42,-0.08,2.45
4.644,-0.46,2.49,-0.08,2.53
4.654,-0.50,1.99,-0.09,2.05
4.664,-0.49,1.18,-0.05,1.28
4.674,-0.55,0.37,-0.05,0.66
4.684,-0.68,-0.21,-0.02,0.71
4.694,-0.86,-0.56,0.02,1.03
4.704,-0.97,-0.71,0.03,1.20
4.714,-0.95,-0.67,0.05,1.16
4.724,-0.81,-0.54,0.10,0.98
4.734,-0.63,-0.34,0.17,0.73
4.744,-0.43,-0.08,0.29,0.53
4.754,-0.40,0.14,0.46,0.63
4.764,-0.51,0.23,0.48,0.74
4.774,-0.71,0.24,0.43,0.86
4.784,-0.85,0.19,0.41,0.96
4.794,-0.81,0.15,0.38,0.91
4.804,-0.69,0.07,0.29,0.75
4.814,-0.52,0.06,0.25,0.58
4.824,-0.30,0.11,0.32,0.45
4.834,-0.11,0.15,0.45,0.48
4.844,-0.02,0.14,0.63,0.64
4.854,-0.06,0.08,0.83,0.83
4.864,-0.22,-0.02,0.97,1.00
4.874,-0.54,-0.12,1.09,1.23
4.884,-0.95,-0.18,1.16,1.51
4.894,-1.46,-0.22,1.25,1.93
4.904,-1.95,-0.24,1.15,2.27
4.915,-2.26,-0.25,1.02,2.49
4.924,-2.45,-0.21,0.94,2.63
4.934,-2.57,-0.15,0.80,2.70
4.945,-2.67,-0.05,0.70,2.77
4.954,-2.76,0.10,0.57,2.82
4.965,-2.73,0.24,0.41,2.77
4.975,-2.71,0.33,0.27,2.75
4.985,-2.74,0.34,0.31,2.77
4.994,-2.74,0.26,0.48,2.80
5.005,-2.67,0.13,0.49,2.72
5.015,-2.50,0.11,0.51,2.55
5.025,-2.27,0.16,0.52,2.33
5.035,-1.93,0.24,0.49,2.00
5.045,-1.53,0.46,0.36,1.64
5.055,-1.20,0.76,0.18,1.43
5.065,-1.06,1.08,-0.00,1.51
5.075,-1.14,1.30,-0.23,1.74
5.085,-1.35,1.41,-0.50,2.01
5.095,-1.61,1.41,-0.61,2.22
5.105,-1.79,1.16,-0.62,2.22
5.115,-1.93,0.71,-0.67,2.16
5.125,-1.96,0.38,-0.58,2.08
5.135,-1.96,0.28,-0.27,2.00
5.145,-1.93,0.22,0.04,1.95
5.155,-1.59,0.27,-0.03,1.62
5.165,-0.98,0.80,0.40,1.33
5.175,-0.52,1.00,0.51,1.24
5.185,0.30,0.72,0.08,0.79
5.195,1.26,0.43,-0.97,1.65
5.205,2.25,0.42,-1.26,2.61
5.215,3.29,0.07,-1.39,3.57
5.225,3.88,-0.30,-2.15,4.44
5.235,4.06,-0.12,-2.39,4.71
5.245,4.21,0.33,-1.99,4.67
5.255,4.25,0.88,-1.74,4.68
5.265,4.01,1.54,-1.60,4.59
5.275,2.87,2.05,-1.15,3.71
5.285,1.89,2.19,-0.85,3.01
5.295,1.72,1.82,-0.99,2.69
5.305,2.82,0.92,-1.56,3.36
5.315,5.47,0.22,-1.50,5.68
5.325,8.02,-0.07,-0.53,8.04
5.335,7.80,-0.29,0.09,7.81
5.345,5.10,-0.46,0.62,5.16
5.355,3.04,-0.57,1.09,3.28
5.365,0.69,-0.72,1.18,1.54
5.375,-1.29,-0.90,1.19,1.97
5.385,-2.08,-0.99,1.14,2.57
5.395,-1.99,-1.10,0.85,2.42
5.405,-1.26,-1.24,0.36,1.81
5.415,-0.44,-1.23,-0.10,1.31
5.425,0.07,-0.80,-0.32,0.87
5.435,0.41,-0.07,-0.43,0.60
5.445,0.49,0.53,-0.63,0.96
5.455,0.44,0.73,-0.79,1.17
5.465,0.40,0.55,-0.88,1.11
5.475,0.04,0.21,-0.83,0.86
5.485,-0.36,-0.19,-0.67,0.79
5.495,-0.73,-0.57,-0.46,1.04
5.505,-1.25,-0.88,-0.24,1.55
5.515,-1.55,-1.15,-0.08,1.93
5.525,-1.38,-1.37,0.05,1.94
5.535,-0.78,-1.28,0.18,1.51
5.545,-0.09,-0.96,0.28,1.01
5.555,0.38,-0.61,0.28,0.77
5.565,0.43,-0.31,0.14,0.55
5.575,0.08,-0.10,-0.05,0.14
5.585,-0.26,0.05,-0.25,0.37
5.595,-0.62,0.10,-0.35,0.72
5.605,-0.86,0.05,-0.37,0.94
5.615,-0.92,-0.04,-0.35,0.99
5.625,-0.86,-0.09,-0.40,0.96
5.635,-0.78,-0.05,-0.54,0.95
5.645,-0.73,-0.06,-0.60,0.95
5.655,-0.65,-0.16,-0.51,0.85
5.665,-0.53,-0.28,-0.54,0.81
5.675,-0.59,-0.34,-0.62,0.92
5.685,-0.83,-0.32,-0.72,1.15
5.695,-1.21,-0.14,-0.75,1.43
5.705,-1.51,0.09,-0.56,1.61
5.715,-1.77,0.12,-0.43,1.83
5.725,-2.00,0.03,-0.46,2.06
5.735,-2.11,-0.12,-0.47,2.16
5.745,-2.11,-0.34,-0.58,2.21
5.755,-1.87,-0.60,-0.62,2.05
5.765,-1.43,-0.76,-0.55,1.71
5.775,-1.01,-0.84,-0.41,1.37
5.785,-0.88,-0.87,-0.19,1.25
5.795,-0.91,-0.90,-0.18,1.29
5.805,-0.98,-0.90,-0.47,1.41
5.815,-0.88,-0.79,-0.68,1.37
5.825,-0.65,-0.74,-0.76,1.24
5.835,-0.38,-0.72,-0.70,1.08
5.845,-0.33,-0.55,-0.44,0.78
5.855,-0.67,-0.35,-0.11,0.76
5.865,-1.22,-0.23,0.05,1.24
5.875,-1.59,-0.37,0.29,1.66
5.885,-1.48,-0.82,0.44,1.75
5.895,-1.09,-1.25,0.37,1.70
5.905,-0.57,-1.38,0.18,1.50
5.915,-0.24,-1.21,-0.03,1.24
5.925,-0.22,-0.95,0.03,0.98
5.935,-0.15,-0.69,0.24,0.75
5.946,0.03,-0.61,0.54,0.82
5.955,0.27,-0.91,0.67,1.16
5.965,0.61,-1.40,0.72,1.69
5.976,0.81,-1.85,0.77,2.16
5.985,0.82,-2.11,0.55,2.33
5.995,0.54,-2.03,0.14,2.11
6.005,-0.10,-1.57,-0.26,1.59
6.015,-1.05,-0.80,-0.56,1.43
6.025,-2.03,-0.02,-0.58,2.11
6.036,-2.44,0.51,-0.44,2.53
6.045,-2.12,0.51,-0.32,2.20
6.056,-1.17,0.06,-0.22,1.19
6.065,-0.06,-0.76,-0.19,0.78
6.076,0.84,-1.61,-0.36,1.86
6.086,1.26,-1.95,-0.48,2.37
6.096,1.04,-1.57,-0.84,2.06
6.106,0.52,-0.38,-1.07,1.25
6.115,0.17,0.95,-0.99,1.38
6.126,0.25,2.06,-1.01,2.31
6.136,0.67,2.62,-1.02,2.89
6.146,1.35,2.32,-0.90,2.84
6.156,2.11,1.35,-0.76,2.62
6.166,2.81,0.47,-0.85,2.98
6.176,3.12,0.14,-0.96,3.27
6.186,2.48,0.33,-0.74,2.61
6.196,1.61,0.80,-0.44,1.85
6.206,1.31,1.55,0.38,2.07
6.216,1.55,2.24,1.55,3.14
6.226,2.16,2.44,1.72,3.68
6.236,2.89,2.36,1.34,3.96
6.246,3.73,2.06,0.87,4.35
6.256,4.34,1.65,0.54,4.68
6.266,4.30,1.22,0.30,4.48
6.276,3.76,0.84,0.21,3.86
6.286,2.86,0.31,0.20,2.88
6.296,1.66,-0.28,0.25,1.70
6.306,0.63,-0.79,0.45,1.10
6.316,-0.19,-1.02,0.72,1.26
6.326,-0.84,-0.96,0.91,1.57
6.336,-1.26,-0.66,1.08,1.78
6.346,-1.33,-0.23,1.19,1.80
6.356,-1.10,0.21,1.03,1.52
6.366,-0.80,0.56,0.72,1.22
6.376,-0.75,0.86,0.41,1.22
6.386,-0.90,1.17,0.15,1.49
6.396,-1.05,1.39,-0.13,1.75
6.406,-1.17,1.46,-0.34,1.90
6.416,-1.16,1.33,-0.47,1.83
6.426,-0.98,1.12,-0.54,1.58
6.436,-0.76,0.91,-0.51,1.29
6.446,-0.60,0.71,-0.37,1.00
6.456,-0.44,0.49,-0.16,0.68
6.466,-0.23,0.31,-0.10,0.40
6.476,-0.09,0.32,-0.07,0.33
6.486,-0.12,0.44,0.07,0.46
6.496,-0.29,0.51,0.18,0.61
6.506,-0.49,0.51,0.28,0.76
6.516,-0.71,0.47,0.40,0.94
6.526,-0.92,0.37,0.42,1.08
6.536,-1.01,0.27,0.45,1.14
6.546,-1.04,0.15,0.47,1.15
6.556,-0.95,0.02,0.36,1.02
6.566,-0.77,-0.07,0.24,0.81
6.576,-0.54,-0.16,0.14,0.58
6.586,-0.52,-0.28,0.06,0.59
6.596,-0.60,-0.42,-0.10,0.73
6.606,-0.76,-0.51,-0.26,0.95
6.616,-1.01,-0.48,-0.41,1.19
6.626,-1.28,-0.34,-0.50,1.42
6.636,-1.47,-0.10,-0.49,1.55
6.646,-1.47,0.26,-0.35,1.53
6.656,-1.39,0.70,-0.02,1.56
6.666,-1.29,0.98,0.21,1.63
6.676,-1.11,1.11,0.24,1.59
6.686,-0.96,1.18,0.15,1.53
6.696,-0.89,1.11,-0.04,1.42
6.706,-0.99,0.96,-0.21,1.40
6.716,-1.19,0.72,-0.44,1.46
6.726,-1.37,0.44,-0.50,1.53
6.736,-1.48,0.13,-0.31,1.52
6.746,-1.40,-0.22,-0.26,1.44
6.756,-1.33,-0.50,-0.23,1.44
6.766,-1.22,-0.53,-0.01,1.33
6.776,-1.02,-0.40,0.23,1.12
6.786,-0.82,-0.10,0.46,0.95
6.796,-0.72,0.23,0.67,1.01
6.806,-0.61,0.49,0.81,1.13
6.816,-0.50,0.64,0.84,1.17
6.826,-0.46,0.63,0.80,1.12
6.836,-0.44,0.55,0.81,1.08
6.846,-0.42,0.39,0.78,0.97
6.856,-0.33,0.18,0.59,0.70
6.866,-0.24,0.04,0.34,0.42
6.876,-0.25,-0.03,0.09,0.27
6.886,-0.39,-0.11,-0.19,0.44
6.896,-0.65,-0.15,-0.44,0.80
6.906,-1.09,-0.21,-0.39,1.18
6.916,-1.60,-0.35,-0.04,1.64
6.926,-1.98,-0.43,0.47,2.08
6.936,-2.08,-0.34,0.81,2.25
6.946,-1.82,-0.02,0.89,2.02
6.956,-1.51,0.29,0.82,1.75
6.966,-1.32,0.39,0.47,1.46
6.976,-1.38,0.31,0.04,1.42
6.986,-1.59,0.23,-0.15,1.61
6.996,-1.78,0.18,-0.16,1.79
7.006,-1.97,0.32,-0.04,2.00
7.016,-2.00,0.71,-0.07,2.12
7.026,-1.83,1.31,-0.03,2.26
7.036,-1.49,1.76,-0.08,2.31
7.046,-0.81,1.81,-0.81,2.14
7.057,-0.09,1.81,-1.30,2.22
7.066,0.56,1.44,-1.79,2.37
7.076,1.31,0.80,-1.98,2.50
7.086,2.02,0.29,-2.19,2.99
7.097,2.51,0.37,-2.22,3.37
7.106,2.79,0.80,-1.84,3.44
7.116,2.69,1.14,-1.96,3.52
7.126,2.17,1.40,-1.89,3.20
7.136,1.36,1.28,-1.64,2.48
7.147,1.37,0.51,-1.82,2.34
7.157,2.84,-0.66,-1.83,3.44
7.167,5.44,-1.53,-0.88,5.72
7.177,7.55,-1.98,0.36,7.82
7.186,6.58,-1.56,1.42,6.91
7.196,3.62,-0.66,2.09,4.23
7.207,1.40,0.53,2.24,2.69
7.217,0.46,1.61,2.30,2.85
7.227,0.70,1.93,2.17,2.99
7.237,1.55,1.42,1.73,2.72
7.247,2.18,0.39,1.29,2.56
7.257,2.36,-0.90,0.81,2.65
7.267,2.31,-1.73,0.50,2.93
7.277,2.09,-1.85,0.43,2.83
7.287,1.62,-1.49,0.42,2.24
7.297,0.80,-0.89,0.33,1.24
7.307,-0.04,-0.42,0.12,0.44
7.317,-0.41,-0.06,-0.10,0.43
7.327,-0.52,0.20,-0.28,0.62
7.337,-0.42,0.43,-0.37,0.71
7.347,-0.55,0.67,-0.39,0.95
7.357,-0.74,0.74,-0.35,1.10
7.367,-0.55,0.50,-0.32,0.81
7.377,-0.25,0.07,-0.33,0.42
7.387,0.13,-0.37,-0.40,0.55
7.397,0.19,-0.59,-0.44,0.76
7.407,-0.05,-0.65,-0.44,0.78
7.417,-0.43,-0.66,-0.46,0.91
7.427,-0.76,-0.64,-0.54,1.13
7.437,-0.96,-0.57,-0.62,1.28
7.447,-1.02,-0.38,-0.66,1.27
7.457,-0.93,-0.15,-0.59,1.11
7.467,-0.77,0.03,-0.43,0.88
7.477,-0.62,0.08,-0.23,0.66
7.487,-0.51,0.00,-0.10,0.52
7.497,-0.64,-0.10,-0.03,0.65
7.507,-0.76,-0.23,0.06,0.80
7.517,-0.62,-0.43,0.10,0.76
7.527,-0.48,-0.57,0.07,0.74
7.537,-0.37,-0.57,0.06,0.69
7.547,-0.37,-0.49,0.09,0.62
7.557,-0.40,-0.38,0.04,0.55
7.567,-0.44,-0.29,0.00,0.53
7.577,-0.46,-0.25,0.05,0.53
7.587,-0.46,-0.35,0.11,0.59
7.597,-0.35,-0.51,0.15,0.64
7.607,-0.20,-0.71,0.23,0.77
7.617,0.00,-0.86,0.30,0.92
7.627,0.24,-0.95,0.36,1.04
7.637,0.39,-0.92,0.38,1.07
7.647,0.39,-0.81,0.34,0.96
7.657,0.20,-0.65,0.22,0.72
7.667,-0.04,-0.46,0.10,0.47
7.677,-0.23,-0.29,0.06,0.38
7.687,-0.32,-0.27,0.08,0.43
7.697,-0.47,-0.32,0.14,0.58
7.707,-0.73,-0.38,0.11,0.83
7.717,-1.09,-0.39,-0.07,1.16
7.727,-1.41,-0.30,-0.21,1.46
7.737,-1.52,-0.22,-0.40,1.59
7.747,-1.36,-0.22,-0.59,1.50
7.757,-0.99,-0.28,-0.63,1.21
7.767,-0.60,-0.38,-0.65,0.96
7.777,-0.36,-0.42,-0.74,0.92
7.787,-0.57,-0.39,-0.86,1.10
7.797,-1.15,-0.26,-0.91,1.49
7.807,-1.67,-0.23,-0.93,1.93
7.817,-2.06,-0.25,-1.10,2.35
7.827,-2.30,-0.35,-1.31,2.67
7.837,-2.46,-0.38,-1.49,2.90
7.847,-2.24,-0.26,-1.33,2.62
7.857,-1.78,-0.17,-1.08,2.09
7.867,-1.42,-0.26,-0.95,1.73
7.877,-1.16,-0.40,-0.84,1.49
7.887,-0.84,-0.55,-0.48,1.12
7.897,-0.55,-0.63,-0.00,0.84
7.907,-0.41,-0.65,0.42,0.87
7.917,-0.48,-0.73,0.82,1.20
7.927,-0.93,-0.80,0.78,1.46
7.937,-1.70,-0.70,0.39,1.88
7.947,-2.71,-0.33,-0.15,2.73
7.957,-3.75,0.19,-0.36,3.78
7.967,-4.47,0.66,-0.54,4.55
7.977,-4.75,1.02,-0.67,4.90
7.987,-4.68,0.90,-0.51,4.79
7.997,-4.37,-0.00,-0.69,4.42
8.007,-3.49,-1.10,-1.09,3.82
8.017,-2.25,-1.79,-1.27,3.14
8.027,-1.38,-1.96,-1.40,2.77
8.037,-0.95,-1.73,-1.65,2.57
8.047,-0.50,-0.81,-1.85,2.09
8.057,-0.05,0.50,-1.53,1.61
8.067,0.34,1.56,-1.09,1.93
8.077,0.85,2.24,-1.07,2.62
8.087,1.52,2.49,-0.56,2.97
8.097,2.54,1.96,0.32,3.22
8.107,3.79,0.58,0.85,3.93
8.117,5.36,-1.02,0.77,5.51
8.127,6.33,-1.98,0.47,6.64
8.137,6.23,-1.66,0.29,6.46
8.147,5.95,-0.03,0.20,5.95
8.157,5.95,2.04,0.91,6.36
8.168,5.93,3.93,2.16,7.43
8.177,5.75,4.73,1.88,7.68
8.187,6.31,4.35,0.20,7.67
8.197,6.70,3.46,-0.88,7.59
8.207,5.55,2.23,-1.35,6.14
8.217,3.77,1.11,-1.38,4.17
8.228,1.79,0.37,-1.11,2.14
8.237,-0.41,-0.15,-0.83,0.94
8.248,-2.09,-0.52,-0.55,2.22
8.258,-3.09,-0.68,-0.32,3.19
8.268,-3.55,-0.46,-0.05,3.58
8.278,-3.27,0.09,0.45,3.30
8.287,-2.28,0.69,1.02,2.59
8.298,-0.89,1.10,1.28,1.91
8.308,0.49,1.37,1.21,1.89
8.317,1.43,1.53,0.92,2.29
8.328,1.61,1.52,0.43,2.25
8.338,1.08,1.29,-0.28,1.70
8.348,0.40,1.05,-0.94,1.46
8.358,-0.18,0.88,-1.37,1.64
8.368,-0.55,0.78,-1.49,1.77
8.378,-0.91,0.49,-1.48,1.81
8.388,-1.09,0.17,-1.22,1.64
8.398,-0.94,-0.02,-0.93,1.32
8.408,-0.54,-0.02,-0.73,0.91
8.418,-0.10,0.12,-0.47,0.49
8.428,0.12,0.30,-0.19,0.38
8.438,0.17,0.46,0.05,0.49
8.448,0.05,0.61,0.23,0.65
8.458,-0.02,0.71,0.37,0.80
8.468,-0.11,0.72,0.42,0.84
8.478,-0.32,0.57,0.49,0.82
8.488,-0.49,0.26,0.50,0.75
8.498,-0.66,-0.15,0.45,0.81
8.508,-0.80,-0.47,0.46,1.03
8.518,-0.91,-0.58,0.45,1.17
8.528,-0.99,-0.57,0.37,1.20
8.538,-1.04,-0.46,0.31,1.18
8.548,-1.09,-0.26,0.30,1.16
8.558,-1.02,-0.06,0.31,1.07
8.568,-0.83,0.11,0.39,0.92
8.578,-0.66,0.21,0.51,0.86
8.588,-0.50,0.22,0.49,0.73
8.598,-0.40,0.21,0.52,0.69
8.608,-0.45,0.23,0.58,0.77
8.618,-0.63,0.22,0.56,0.87
8.628,-0.78,0.25,0.53,0.97
8.638,-0.90,0.23,0.54,1.07
8.648,-0.98,0.13,0.54,1.13
8.658,-0.99,-0.05,0.56,1.14
8.668,-1.00,-0.22,0.57,1.17
8.678,-0.99,-0.34,0.59,1.21
8.688,-0.97,-0.43,0.57,1.21
8.698,-0.93,-0.50,0.52,1.18
8.708,-0.93,-0.50,0.50,1.17
8.718,-0.94,-0.42,0.49,1.14
8.728,-0.89,-0.24,0.43,1.02
8.738,-0.89,-0.03,0.40,0.98
8.748,-0.94,0.16,0.36,1.02
8.758,-0.96,0.31,0.33,1.06
8.768,-1.08,0.38,0.31,1.18
8.778,-1.16,0.40,0.26,1.26
8.788,-1.17,0.42,0.17,1.25
8.798,-1.24,0.40,0.20,1.32
8.808,-1.45,0.30,0.23,1.50
8.818,-1.73,0.23,0.18,1.75
8.828,-2.04,0.27,-0.03,2.05
8.838,-2.27,0.32,0.01,2.30
8.848,-2.46,0.26,-0.07,2.47
8.858,-2.45,0.29,-0.01,2.47
8.868,-2.27,0.38,0.18,2.31
8.878,-1.91,0.48,0.40,2.01
8.888,-1.65,0.53,0.50,1.81
8.898,-1.58,0.50,0.43,1.72
8.908,-1.70,0.46,0.30,1.79
8.918,-2.01,0.37,0.38,2.08
8.928,-2.37,0.13,0.51,2.43
8.938,-2.51,-0.18,0.60,2.59
8.948,-2.44,-0.27,0.85,2.60
8.958,-1.96,0.05,1.05,2.23
8.968,-1.39,0.58,1.12,1.87
8.978,-0.95,1.01,0.86,1.63
8.988,-0.69,1.35,0.18,1.53
8.998,-0.73,1.60,-0.17,1.77
9.008,-1.01,1.17,-0.66,1.68
9.018,-0.72,-0.00,-1.33,1.51
9.028,0.96,-0.76,-0.86,1.50
9.038,3.61,-0.85,-0.08,3.71
9.048,5.74,-0.39,-0.00,5.75
9.058,6.65,0.63,-0.79,6.72
9.068,6.37,1.97,-1.17,6.77
9.078,4.93,2.76,-1.70,5.90
9.088,2.54,2.70,-2.38,4.40
9.098,0.41,2.45,-2.50,3.52
9.108,-0.72,2.29,-2.09,3.18
9.118,-1.53,1.93,-1.79,3.05
9.128,-1.36,1.30,-1.52,2.42
9.138,-0.25,0.51,-1.04,1.19
9.148,1.52,-0.23,-0.64,1.67
9.158,4.02,-1.03,-0.66,4.21
9.168,6.87,-1.82,-0.84,7.16
9.178,8.82,-2.07,-0.85,9.11
9.188,8.77,-1.32,-0.79,8.90
9.199,6.24,0.01,-0.34,6.25
9.208,3.34,1.11,0.16,3.52
9.219,0.94,1.59,0.54,1.92
9.229,-1.14,1.64,0.73,2.12
9.238,-2.93,1.45,0.91,3.39
9.248,-3.85,0.82,0.88,4.03
9.258,-3.80,-0.20,0.47,3.83
9.268,-3.15,-1.34,0.03,3.42
9.278,-1.51,-2.30,-0.25,2.76
9.288,-0.14,-2.65,-0.43,2.69
9.298,0.09,-2.23,-0.47,2.28
9.309,0.11,-1.42,-0.45,1.49
9.319,0.20,-0.63,-0.40,0.77
9.329,0.47,-0.06,-0.39,0.61
9.339,0.82,0.23,-0.56,1.02
9.349,0.59,0.29,-0.76,1.00
9.359,0.09,0.19,-0.79,0.82
9.369,-0.07,-0.10,-0.65,0.67
9.379,-0.24,-0.42,-0.38,0.61
9.389,-0.32,-0.64,0.03,0.72
9.399,-0.38,-0.67,0.35,0.85
9.409,-0.42,-0.55,0.41,0.80
9.419,-0.44,-0.34,0.27,0.61
9.429,-0.41,-0.09,0.05,0.43
9.439,-0.38,0.08,-0.15,0.41
9.448,-0.25,0.09,-0.26,0.37
9.459,-0.07,-0.03,-0.32,0.33
9.469,0.11,-0.25,-0.30,0.40
9.479,0.33,-0.45,-0.16,0.59
9.489,0.46,-0.64,-0.05,0.79
9.499,0.28,-0.68,-0.01,0.73
9.509,-0.17,-0.58,-0.01,0.60
9.519,-0.68,-0.44,-0.03,0.81
9.529,-1.19,-0.34,-0.13,1.24
9.539,-1.63,-0.17,-0.22,1.66
9.549,-1.98,0.06,-0.30,2.00
9.559,-2.15,0.28,-0.23,2.18
9.569,-2.04,0.37,-0.17,2.08
9.579,-1.72,0.24,-0.19,1.75
9.589,-1.09,-0.16,-0.22,1.12
9.599,-0.35,-0.63,-0.33,0.79
9.609,0.30,-0.89,-0.53,1.08
9.619,0.60,-0.84,-0.71,1.26
9.629,0.51,-0.54,-0.87,1.14
9.639,-0.05,-0.23,-0.81,0.84
9.649,-0.85,-0.13,-0.82,1.19
9.659,-1.92,-0.13,-0.87,2.11
9.669,-2.94,-0.09,-0.86,3.07
9.679,-3.52,0.10,-0.65,3.58
9.689,-3.35,0.17,-0.55,3.40
9.699,-2.64,0.10,-0.59,2.70
9.709,-1.60,-0.15,-0.48,1.68
9.719,-0.46,-0.49,-0.53,0.86
9.729,0.26,-0.72,-0.90,1.18
9.739,0.23,-0.84,-0.96,1.29
9.749,-0.26,-0.93,-0.58,1.13
9.759,-0.98,-1.00,-0.20,1.41
9.769,-1.96,-1.03,0.11,2.21
9.779,-2.79,-1.11,0.44,3.03
9.789,-3.47,-1.28,0.59,3.74
9.799,-3.69,-1.48,0.41,4.00
9.809,-3.19,-1.59,0.12,3.56
9.819,-1.96,-1.45,-0.07,2.44
9.829,-0.48,-1.15,-0.16,1.26
9.839,1.02,-0.88,-0.23,1.37
9.849,1.76,-0.57,-0.18,1.86
9.859,1.33,-0.35,0.02,1.38
9.869,0.30,-0.47,0.23,0.60
9.879,-0.62,-0.70,0.41,1.02
9.889,-1.70,-0.87,0.47,1.97
9.899,-2.50,-1.05,0.39,2.74
9.909,-2.68,-1.26,0.42,2.99
9.919,-2.40,-1.72,0.17,2.96
9.929,-1.18,-1.78,-0.35,2.16
9.939,0.26,-1.30,-0.28,1.35
9.949,1.18,-0.81,-0.31,1.46
9.959,1.80,-0.06,-0.21,1.81
9.969,2.04,0.72,-0.02,2.16
9.979,2.26,1.28,-0.05,2.60
9.989,2.62,1.54,-0.27,3.05
9.999,3.28,1.51,-0.47,3.64
10.009,3.87,1.41,-0.72,4.18
10.019,3.82,1.57,-0.81,4.21
10.029,3.32,2.01,-0.78,3.96
10.039,2.78,2.47,-0.52,3.76
10.049,2.35,2.75,0.13,3.62
10.059,2.01,2.58,0.34,3.29
10.069,2.08,2.23,0.11,3.05
10.079,2.48,1.94,0.18,3.15
10.089,2.98,1.64,0.36,3.42
10.099,3.41,1.53,0.67,3.80
10.109,3.71,1.61,0.88,4.14
10.119,3.78,1.62,0.91,4.21
10.129,3.34,1.29,0.73,3.65
10.139,2.48,0.70,0.55,2.64
10.149,1.50,0.03,0.35,1.54
10.159,0.61,-0.62,0.24,0.91
10.169,-0.04,-1.12,0.22,1.14
10.179,-0.42,-1.35,0.35,1.46
10.189,-0.66,-1.24,0.42,1.46
10.199,-0.78,-0.76,0.45,1.18
10.210,-0.69,-0.10,0.38,0.80
10.219,-0.38,0.60,0.13,0.72
10.229,-0.17,1.26,-0.28,1.30
10.239,-0.17,1.82,-0.67,1.95
10.249,-0.32,2.15,-0.90,2.35
10.259,-0.57,2.19,-1.06,2.49
10.269,-0.76,1.85,-1.21,2.34
10.279,-0.89,1.33,-1.32,2.07
10.290,-0.91,0.78,-1.23,1.72
10.299,-0.90,0.40,-1.10,1.47
10.309,-0.79,0.27,-0.92,1.24
10.319,-0.73,0.32,-0.69,1.05
10.329,-0.71,0.47,-0.54,1.01
10.340,-0.72,0.65,-0.44,1.07
10.349,-0.67,0.77,-0.31,1.06
10.360,-0.60,0.80,-0.16,1.01
10.369,-0.54,0.75,-0.06,0.93
10.379,-0.53,0.61,0.11,0.82
10.389,-0.56,0.44,0.28,0.77
10.399,-0.64,0.15,0.39,0.76
10.409,-0.70,-0.12,0.48,0.86
10.420,-0.78,-0.34,0.58,1.03
10.429,-0.78,-0.45,0.59,1.08
10.439,-0.75,-0.47,0.61,1.07
10.450,-0.69,-0.41,0.63,1.02
10.460,-0.62,-0.37,0.69,1.00
10.470,-0.54,-0.35,0.81,1.04
10.480,-0.48,-0.40,0.94,1.13
10.490,-0.47,-0.48,1.07,1.26
10.500,-0.54,-0.61,1.12,1.39
10.510,-0.75,-0.70,1.13,1.53
10.520,-1.01,-0.74,1.15,1.70
10.530,-1.13,-0.83,1.10,1.78
10.540,-1.11,-0.83,1.01,1.72
10.550,-0.93,-0.64,0.92,1.46
10.560,-0.72,-0.32,0.77,1.10
10.570,-0.62,-0.05,0.62,0.87
10.580,-0.69,0.16,0.51,0.87
10.590,-0.73,0.32,0.44,0.91
10.600,-0.75,0.41,0.33,0.92
10.610,-0.79,0.48,0.19,0.95
10.620,-0.96,0.59,0.09,1.13
10.630,-1.21,0.74,-0.02,1.42
10.640,-1.55,0.85,-0.06,1.77
10.650,-1.89,0.90,-0.16,2.10
10.660,-2.07,0.95,-0.34,2.30
10.670,-2.10,1.02,-0.49,2.38
10.680,-2.08,1.03,-0.44,2.36
10.690,-2.03,0.83,-0.50,2.25
10.700,-2.01,0.56,-0.71,2.20
10.710,-2.05,0.29,-0.77,2.21
10.720,-2.12,0.08,-0.47,2.17
10.730,-2.11,-0.24,-0.31,2.15
10.740,-2.15,-0.47,-0.21,2.21
10.750,-2.12,-0.47,-0.12,2.17
10.760,-1.99,-0.33,0.08,2.02
10.770,-1.93,-0.22,0.27,1.96
10.780,-1.98,-0.10,0.24,1.99
10.790,-2.10,0.11,0.29,2.13
10.800,-2.37,0.15,0.52,2.43
10.810,-2.58,-0.09,0.73,2.69
10.820,-2.43,-0.32,0.91,2.61
10.830,-2.02,-0.43,0.96,2.28
10.840,-1.41,-0.43,0.72,1.64
10.850,-0.79,-0.24,0.81,1.15
10.860,-0.02,-0.52,0.17,0.55
10.870,0.98,-0.73,-1.10,1.64
10.880,2.26,-0.38,-1.83,2.93
10.890,3.66,-0.06,-1.99,4.16
10.900,4.97,0.47,-2.38,5.53
10.910,5.77,1.79,-2.59,6.57
10.920,5.84,3.33,-2.18,7.07
10.930,5.08,4.42,-1.84,6.98
10.940,3.66,4.84,-1.50,6.25
10.950,1.51,4.38,-1.12,4.77
10.960,-0.63,3.18,-0.60,3.30
10.970,-1.80,1.75,-0.28,2.53
10.980,-1.95,0.23,0.06,1.97
10.990,-1.29,-1.25,0.53,1.87
11.000,0.41,-2.37,0.65,2.49
11.010,3.36,-3.08,0.46,4.58
11.020,6.00,-3.28,0.43,6.85
11.030,6.93,-2.78,0.32,7.47
11.040,5.82,-1.39,0.15,5.99
11.050,4.02,0.26,0.08,4.03
11.060,2.57,1.34,0.42,2.93
11.070,1.31,1.60,0.60,2.15
11.080,0.53,1.46,0.70,1.70
11.090,-0.11,1.16,0.68,1.35
11.100,-0.47,0.70,0.50,0.98
11.110,-0.54,0.24,0.24,0.64
11.120,-0.39,-0.02,-0.07,0.40
11.130,0.16,-0.01,-0.35,0.39
11.140,0.77,0.15,-0.54,0.95
11.150,1.03,0.28,-0.75,1.31
11.160,0.94,0.30,-0.91,1.34
11.170,0.75,0.15,-0.98,1.24
11.180,0.38,-0.14,-0.94,1.03
11.190,-0.03,-0.40,-0.88,0.97
11.200,-0.26,-0.71,-0.87,1.15
11.210,-0.40,-0.96,-0.87,1.35
11.220,-0.50,-0.99,-0.78,1.36
11.230,-0.61,-0.77,-0.58,1.14
11.240,-0.71,-0.47,-0.34,0.92
11.250,-0.83,-0.24,-0.22,0.89
11.260,-0.98,-0.17,-0.16,1.01
11.270,-0.98,-0.21,-0.18,1.02
11.280,-0.84,-0.36,-0.31,0.97
11.290,-0.61,-0.53,-0.46,0.93
11.300,-0.26,-0.65,-0.62,0.94
11.310,-0.03,-0.76,-0.77,1.08
11.320,0.13,-0.70,-0.89,1.14
11.330,0.15,-0.48,-0.89,1.02
11.340,-0.07,-0.26,-0.82,0.86
11.350,-0.39,-0.05,-0.72,0.82
11.360,-0.79,0.13,-0.61,1.00
11.371,-1.18,0.26,-0.50,1.31
11.380,-1.52,0.33,-0.44,1.62
11.390,-1.71,0.42,-0.39,1.81
11.400,-1.68,0.48,-0.36,1.79
11.410,-1.38,0.40,-0.31,1.47
11.420,-0.94,0.18,-0.28,1.00
11.430,-0.60,-0.10,-0.26,0.66
11.440,-0.51,-0.33,-0.34,0.70
11.451,-0.61,-0.41,-0.50,0.89
11.460,-0.78,-0.35,-0.46,0.97
11.471,-1.08,-0.33,-0.36,1.18
11.480,-1.50,-0.38,-0.28,1.57
11.491,-1.93,-0.33,-0.05,1.96
11.500,-2.28,-0.21,0.11,2.29
11.511,-2.38,-0.15,0.12,2.38
11.521,-2.15,-0.29,0.08,2.17
11.531,-1.56,-0.62,-0.06,1.68
11.541,-0.68,-0.82,-0.28,1.10
11.551,0.05,-0.85,-0.45,0.96
11.561,0.27,-0.73,-0.54,0.95
11.571,0.06,-0.39,-0.65,0.76
11.581,-0.55,-0.05,-0.58,0.80
11.591,-1.58,0.01,-0.28,1.60
11.601,-2.70,-0.19,-0.12,2.71
11.611,-3.47,-0.39,0.01,3.49
11.620,-3.77,-0.53,-0.05,3.81
11.631,-3.52,-0.63,-0.20,3.58
11.641,-2.57,-0.81,-0.27,2.71
11.651,-1.22,-1.03,-0.30,1.62
11.661,0.56,-1.17,-0.52,1.40
11.671,1.50,-1.14,-0.62,1.98
11.681,1.37,-1.06,-0.63,1.84
11.691,0.55,-0.99,-0.49,1.23
11.701,-0.44,-0.84,-0.28,0.99
11.711,-1.31,-0.73,-0.07,1.50
11.721,-1.74,-0.71,0.20,1.90
11.731,-1.92,-0.95,0.41,2.18
11.741,-1.79,-1.38,0.37,2.29
11.751,-1.18,-1.36,0.51,1.87
11.761,-0.68,-1.00,0.34,1.26
11.771,-0.34,-0.15,0.12,0.39
11.781,0.07,1.10,-0.18,1.12
11.791,0.62,2.54,-0.65,2.69
11.801,1.31,3.91,-1.19,4.30
11.811,1.98,4.48,-1.64,5.17
11.821,2.53,3.79,-1.98,4.97
11.831,3.18,2.51,-1.90,4.48
11.841,3.76,1.32,-1.53,4.27
11.851,4.20,0.74,-0.31,4.27
11.861,4.35,0.89,1.82,4.80
11.871,4.25,0.69,3.10,5.30
11.881,5.05,0.18,2.50,5.63
11.891,7.07,0.38,1.86,7.32
11.901,7.75,0.70,0.92,7.84
11.911,6.56,0.69,-0.12,6.60
11.921,4.94,0.37,-0.49,4.98
11.931,3.13,-0.34,-0.31,3.17
11.941,0.78,-1.33,-0.39,1.59
11.951,-1.05,-2.09,-0.59,2.41
11.961,-2.32,-2.37,-0.49,3.35
11.971,-3.29,-1.96,-0.11,3.83
11.981,-3.71,-1.03,0.41,3.87
11.991,-3.10,0.10,1.06,3.28
12.001,-1.70,1.02,1.42,2.44
12.011,-0.08,1.51,1.43,2.08
12.021,1.22,1.61,1.13,2.32
12.031,1.79,1.48,0.75,2.44
12.041,1.43,1.20,0.31,1.89
12.051,0.63,0.80,-0.13,1.03
12.061,-0.04,0.35,-0.47,0.59
12.071,-0.56,-0.05,-0.79,0.97
12.081,-0.96,-0.30,-0.98,1.40
12.091,-1.19,-0.32,-0.99,1.58
12.101,-1.24,-0.18,-0.93,1.55
12.111,-1.11,0.04,-0.86,1.40
12.121,-0.95,0.29,-0.77,1.26
12.131,-0.78,0.52,-0.57,1.10
12.141,-0.61,0.72,-0.42,1.03
12.151,-0.52,0.88,-0.26,1.06
12.161,-0.50,0.93,-0.10,1.06
12.171,-0.58,0.91,0.09,1.08
12.181,-0.73,0.78,0.23,1.09
12.191,-0.83,0.57,0.31,1.06
12.201,-0.89,0.30,0.38,1.01
12.211,-0.87,-0.01,0.39,0.96
12.221,-0.84,-0.30,0.38,0.97
12.231,-0.78,-0.51,0.35,1.00
12.241,-0.67,-0.61,0.27,0.95
12.251,-0.54,-0.59,0.28,0.85
12.261,-0.46,-0.39,0.35,0.70
12.271,-0.45,-0.09,0.45,0.65
12.281,-0.49,0.21,0.62,0.81
12.291,-0.57,0.39,0.82,1.07
12.301,-0.74,0.39,0.96,1.27
12.311,-0.98,0.28,0.95,1.40
12.321,-1.25,0.13,0.83,1.51
12.331,-1.44,0.00,0.71,1.60
12.341,-1.49,-0.12,0.57,1.60
12.351,-1.44,-0.16,0.37,1.50
12.361,-1.33,-0.05,0.28,1.36
12.371,-1.26,0.08,0.14,1.27
12.381,-1.31,0.18,0.05,1.33
12.391,-1.41,0.29,0.06,1.44
12.401,-1.43,0.48,0.04,1.51
12.411,-1.41,0.57,0.05,1.53
12.421,-1.60,0.55,0.03,1.69
12.431,-1.84,0.48,-0.04,1.90
12.441,-2.01,0.46,-0.21,2.07
12.451,-2.10,0.52,-0.08,2.16
12.461,-2.02,0.52,0.05,2.08
12.471,-1.82,0.52,-0.01,1.89
12.481,-1.63,0.50,0.05,1.71
12.491,-1.41,0.34,0.26,1.48
12.502,-1.07,0.07,0.34,1.13
12.511,-0.74,-0.18,0.23,0.80
12.521,-0.62,-0.35,0.01,0.71
12.531,-0.76,-0.41,-0.08,0.87
12.541,-1.20,-0.44,0.02,1.28
12.551,-1.77,-0.47,-0.05,1.83
12.561,-2.33,-0.41,-0.08,2.37
12.572,-2.79,-0.28,0.12,2.81
12.582,-2.99,-0.10,0.56,3.05
12.592,-2.89,0.11,0.98,3.05
12.602,-2.55,0.24,1.20,2.83
12.612,-2.14,0.24,1.03,2.38
12.622,-1.58,0.28,0.38,1.65
12.632,-0.99,0.60,-0.07,1.16
12.642,-0.24,0.56,-0.62,0.87
12.652,0.93,0.13,-1.15,1.48
12.662,2.83,-0.09,-1.43,3.17
12.672,5.33,0.11,-1.09,5.45
12.682,7.17,0.60,-0.67,7.22
12.692,7.35,1.46,-0.77,7.53
12.702,6.35,2.47,-0.58,6.84
12.712,4.82,3.09,-0.56,5.75
12.722,3.02,2.93,-0.84,4.29
12.732,1.24,2.27,-1.10,2.81
12.742,-0.34,1.56,-1.31,2.07
12.752,-1.28,0.83,-1.40,2.07
12.762,-1.27,0.04,-1.27,1.80
12.772,-0.23,-0.74,-1.12,1.36
12.782,1.39,-1.30,-1.01,2.16
12.792,3.36,-1.67,-0.79,3.84
12.802,5.27,-1.81,-0.66,5.62
12.812,6.32,-1.64,-0.48,6.55
12.822,5.90,-0.98,-0.30,5.99
12.832,4.03,0.07,-0.06,4.03
12.842,2.03,0.95,0.22,2.26
12.852,0.45,1.32,0.45,1.46
12.862,-0.82,1.30,0.47,1.60
12.872,-1.67,1.17,0.37,2.07
12.882,-2.15,0.85,0.16,2.31
12.892,-2.27,0.32,-0.08,2.30
12.902,-1.93,-0.26,-0.27,1.96
12.912,-1.34,-0.72,-0.45,1.58
12.922,-0.76,-0.93,-0.63,1.36
12.932,-0.08,-0.98,-0.71,1.21
12.942,0.48,-0.97,-0.73,1.30
12.952,0.95,-0.89,-0.70,1.48
12.962,1.13,-0.77,-0.62,1.50
12.972,0.99,-0.63,-0.58,1.31
12.982,0.55,-0.47,-0.49,0.87
12.992,0.07,-0.33,-0.31,0.46
13.002,-0.32,-0.23,-0.17,0.43
13.012,-0.67,-0.21,0.03,0.70
13.022,-0.85,-0.27,0.23,0.92
13.032,-0.87,-0.37,0.40,1.03
13.042,-0.91,-0.52,0.45,1.14
13.052,-0.82,-0.63,0.48,1.14
13.062,-0.59,-0.72,0.44,1.03
13.072,-0.42,-0.77,0.28,0.92
13.082,-0.32,-0.75,0.16,0.83
13.092,-0.21,-0.65,0.07,0.69
13.102,-0.16,-0.54,-0.03,0.57
13.112,-0.10,-0.46,-0.14,0.49
13.122,-0.16,-0.40,-0.25,0.50
13.132,-0.28,-0.30,-0.33,0.52
13.142,-0.49,-0.23,-0.31,0.62
13.152,-0.78,-0.20,-0.26,0.85
13.162,-1.02,-0.18,-0.24,1.07
13.172,-1.21,-0.20,-0.22,1.25
13.182,-1.30,-0.34,-0.28,1.37
13.192,-1.35,-0.47,-0.44,1.50
13.202,-1.31,-0.56,-0.65,1.56
13.212,-1.25,-0.56,-0.80,1.59
13.222,-1.31,-0.53,-0.88,1.66
13.232,-1.47,-0.56,-0.89,1.80
13.242,-1.64,-0.62,-0.89,1.97
13.252,-1.74,-0.69,-0.85,2.05
13.262,-1.70,-0.68,-0.75,1.98
13.272,-1.63,-0.69,-0.62,1.87
13.282,-1.54,-0.78,-0.48,1.79
13.292,-1.59,-0.86,-0.39,1.85
13.302,-1.86,-0.85,-0.30,2.07
13.312,-2.04,-0.88,-0.35,2.25
13.322,-1.97,-0.85,-0.42,2.19
13.332,-1.73,-0.82,-0.35,1.95
13.342,-1.39,-0.90,-0.38,1.70
13.352,-1.02,-0.94,-0.24,1.41
13.362,-0.71,-1.12,-0.03,1.32
13.372,-0.35,-1.31,0.06,1.36
13.382,-0.09,-1.44,0.06,1.44
13.392,-0.08,-1.42,0.01,1.43
13.402,-0.21,-1.27,-0.05,1.29
13.412,-0.36,-1.03,-0.24,1.12
13.422,-0.53,-0.74,-0.38,0.99
13.432,-0.67,-0.49,-0.23,0.86
13.442,-0.73,-0.46,-0.02,0.86
13.452,-0.73,-0.74,0.27,1.08
13.462,-0.50,-1.42,0.60,1.62
13.472,-0.11,-2.39,0.99,2.59
13.482,0.22,-3.36,1.37,3.63
13.492,0.19,-3.82,1.37,4.06
13.502,-0.26,-3.63,1.14,3.81
13.512,-0.73,-2.85,0.97,3.10
13.522,-1.13,-2.04,0.70,2.44
13.532,-1.44,-1.50,-0.16,2.08
13.542,-1.43,-0.56,-0.31,1.56
13.552,-1.30,0.19,-0.16,1.32
13.562,-0.88,0.87,-0.17,1.25
13.573,-0.36,1.56,-0.32,1.64
13.582,-0.12,2.23,-0.73,2.35
13.592,-0.07,2.79,-1.16,3.02
13.602,0.25,3.01,-1.05,3.20
13.612,1.02,2.69,-0.74,2.97
13.622,2.35,1.97,-0.66,3.14
13.632,4.17,1.43,0.08,4.41
13.643,5.88,1.04,0.93,6.05
13.652,7.48,1.03,1.49,7.70
13.663,8.69,1.46,1.77,8.98
13.673,9.08,1.99,1.76,9.46
13.682,8.25,2.31,1.58,8.71
13.693,6.78,2.10,1.25,7.21
13.702,5.43,1.51,0.76,5.69
13.713,3.31,1.04,0.35,3.49
13.722,1.46,0.66,0.31,1.63
13.732,0.20,0.19,0.51,0.58
13.743,-0.57,-0.39,0.77,1.04
13.753,-0.96,-0.86,0.81,1.52
13.763,-1.04,-1.02,0.72,1.62
13.773,-1.08,-0.85,0.75,1.57
13.783,-1.17,-0.55,0.70,1.47
13.793,-1.19,-0.19,0.45,1.29
13.803,-1.20,0.18,0.02,1.21
13.813,-1.33,0.53,-0.43,1.49
13.823,-1.52,0.88,-0.87,1.96
13.833,-1.57,1.12,-1.23,2.29
13.843,-1.56,1.17,-1.57,2.50
13.853,-1.59,1.12,-1.85,2.69
13.863,-1.59,1.02,-1.95,2.71
13.873,-1.63,0.92,-1.75,2.56
13.883,-1.69,0.82,-1.50,2.41
13.893,-1.62,0.66,-1.25,2.14
13.903,-1.40,0.52,-1.01,1.80
13.913,-1.15,0.45,-0.93,1.55
13.923,-1.02,0.43,-0.83,1.38
13.933,-1.00,0.44,-0.66,1.28
13.943,-0.98,0.38,-0.46,1.15
13.953,-0.95,0.31,-0.22,1.02
13.963,-0.89,0.17,0.04,0.90
13.973,-0.87,0.04,0.19,0.89
13.983,-0.34,0.23,0.26,0.49
13.993,-0.39,0.17,0.33,0.54
14.003,-0.46,-0.01,0.24,0.52
14.013,-0.19,0.06,0.23,0.31
14.023,-0.12,0.09,0.12,0.19
14.033,-0.20,0.23,0.15,0.34
14.043,-0.12,0.36,0.12,0.40
14.053,-0.22,0.48,0.07,0.53
14.063,-0.31,0.65,0.22,0.75
14.073,-0.28,0.82,0.41,0.96
14.083,-0.21,0.88,0.53,1.05
14.093,-0.13,0.83,0.63,1.05
14.103,0.04,0.61,0.75,0.97
14.113,0.04,0.22,0.81,0.84
14.123,-0.16,-0.18,0.82,0.85
14.133,-0.30,-0.55,0.77,1.00
14.143,-0.31,-0.81,0.76,1.15
14.153,-0.31,-1.01,0.89,1.38
14.163,-0.29,-1.21,1.01,1.60
14.173,-0.17,-1.38,1.04,1.73
14.183,-0.08,-1.41,1.14,1.81
14.193,-0.10,-1.22,1.48,1.92
14.203,-0.22,-0.94,1.92,2.15
14.213,-0.52,-0.70,2.19,2.35
14.223,-0.86,-0.59,2.40,2.62
14.233,-1.10,-0.62,2.49,2.79
14.243,-1.19,-0.72,2.38,2.75
14.253,-1.12,-0.72,2.11,2.50
14.263,-0.67,-0.56,1.60,1.83
14.273,0.27,-0.18,0.94,1.00
14.283,1.40,0.26,0.40,1.48
14.293,2.94,0.79,0.00,3.05
14.303,4.03,1.69,-0.09,4.37
14.313,3.56,2.95,-0.34,4.63
14.323,2.12,3.94,-0.66,4.52
14.333,1.45,4.07,-0.74,4.38
14.343,1.66,3.31,-0.96,3.82
14.353,1.74,2.07,-1.09,2.92
14.363,1.40,0.86,-1.31,2.10
14.373,1.03,-0.05,-1.50,1.83
14.383,0.37,-0.84,-1.45,1.72
14.393,-0.43,-1.38,-1.44,2.04
14.403,-1.13,-1.33,-1.61,2.38
14.413,-1.87,-0.73,-1.85,2.73
14.423,-2.50,0.16,-2.03,3.22
14.433,-2.58,0.97,-2.10,3.46
14.443,-1.36,1.44,-2.07,2.86
14.453,0.19,1.59,-2.05,2.60
14.463,1.11,1.59,-2.08,2.85
14.473,1.24,1.60,-2.09,2.91
14.483,1.03,1.52,-2.08,2.78
14.493,0.78,1.20,-2.00,2.46
14.503,0.48,0.79,-1.86,2.07
14.513,0.21,0.47,-1.74,1.82
14.523,-0.03,0.24,-1.56,1.58
14.533,-0.21,0.00,-1.32,1.34
14.543,-0.17,-0.05,-1.10,1.12
14.553,-0.10,0.03,-0.90,0.90
14.563,-0.16,0.23,-0.74,0.79
14.573,-0.31,0.48,-0.68,0.89
14.583,-0.53,0.72,-0.68,1.12
14.593,-0.66,0.85,-0.71,1.29
14.603,-0.65,0.82,-0.76,1.30
14.613,-0.53,0.67,-0.75,1.13
14.623,-0.39,0.38,-0.63,0.84
14.633,-0.31,-0.04,-0.53,0.62
14.643,-0.18,-0.44,-0.43,0.64
14.654,-0.06,-0.83,-0.32,0.89
14.663,-0.04,-1.10,-0.29,1.14
14.674,-0.02,-1.19,-0.28,1.23
14.683,-0.01,-1.00,-0.27,1.04
14.693,-0.07,-0.65,-0.28,0.72
14.703,-0.24,-0.25,-0.29,0.45
14.713,-0.44,0.14,-0.25,0.52
14.723,-0.59,0.41,-0.19,0.75
14.733,-0.68,0.53,-0.14,0.87
14.743,-0.62,0.49,-0.09,0.79
14.754,-0.56,0.32,-0.08,0.65
14.763,-0.46,0.10,-0.08,0.47
14.773,-0.36,-0.10,-0.09,0.39
14.783,-0.27,-0.29,-0.09,0.40
14.794,-0.19,-0.44,-0.09,0.49
14.804,-0.11,-0.56,-0.01,0.57
14.814,-0.04,-0.61,0.06,0.61
14.824,-0.08,-0.61,0.04,0.61
14.833,-0.13,-0.59,0.05,0.61
14.844,-0.20,-0.62,0.03,0.65
14.854,-0.26,-0.70,-0.01,0.75
14.864,-0.31,-0.78,-0.01,0.84
14.874,-0.39,-0.85,0.00,0.94
14.884,-0.46,-0.90,0.00,1.01
14.894,-0.45,-0.87,-0.03,0.98
14.904,-0.43,-0.81,-0.03,0.92
14.914,-0.38,-0.77,-0.03,0.86
14.924,-0.32,-0.72,-0.01,0.79
14.934,-0.22,-0.66,0.02,0.69
14.944,-0.23,-0.57,-0.02,0.62
14.954,-0.33,-0.49,-0.01,0.59
14.964,-0.38,-0.41,0.03,0.56
14.974,-0.41,-0.31,0.08,0.52
14.984,-0.44,-0.28,0.09,0.53
14.994,-0.42,-0.28,0.12,0.52
15.004,-0.39,-0.34,0.22,0.56
15.014,-0.33,-0.41,0.30,0.61
15.024,-0.17,-0.51,0.29,0.62
15.034,-0.05,-0.63,0.34,0.72
15.044,-0.03,-0.70,0.42,0.82
15.054,0.21,-0.66,0.43,0.82
15.064,0.50,-0.59,0.42,0.88
15.074,0.75,-0.48,0.42,0.99
15.084,0.86,-0.34,0.49,1.04
15.094,0.92,-0.33,0.46,1.08
15.104,1.29,-0.48,0.26,1.40
15.114,1.67,-0.59,-0.05,1.77
15.124,1.80,-0.55,-0.19,1.90
15.134,1.45,-0.45,-0.21,1.53
15.144,0.93,-0.30,-0.15,0.99
15.154,0.53,-0.10,-0.21,0.58
15.164,0.31,0.05,-0.41,0.52
15.174,0.34,0.12,-0.77,0.85
15.184,0.61,0.18,-1.07,1.25
15.194,0.87,0.27,-1.56,1.80
15.204,0.92,0.48,-2.01,2.26
15.214,0.80,0.71,-2.23,2.47
15.224,0.52,0.86,-2.32,2.53
15.234,-0.00,1.04,-2.28,2.51
15.244,-0.64,1.20,-2.09,2.49
15.254,-1.19,1.39,-1.85,2.60
15.264,-1.69,1.58,-1.51,2.76
15.274,-2.11,1.74,-1.06,2.93
15.284,-2.24,1.79,-0.68,2.94
15.294,-1.96,1.57,-0.31,2.53
15.304,-1.33,1.13,-0.03,1.74
15.314,-0.48,0.63,0.12,0.80
15.324,0.36,0.17,0.21,0.45
15.334,0.98,-0.14,0.23,1.02
15.344,1.36,-0.20,0.26,1.40
15.354,1.46,-0.11,0.22,1.48
15.364,1.43,-0.05,0.28,1.46
15.374,1.33,-0.04,0.20,1.34
15.384,1.29,0.03,-0.02,1.29
15.394,1.12,0.23,-0.11,1.15
15.404,0.80,0.49,-0.06,0.94
15.414,0.28,0.68,0.04,0.73
15.424,-0.26,0.72,0.10,0.77
15.434,-0.75,0.64,0.12,1.00
15.444,-1.13,0.53,0.15,1.25
15.454,-1.34,0.37,0.18,1.40
15.464,-1.41,0.24,0.22,1.45
15.474,-1.34,0.14,0.18,1.36
15.484,-1.11,0.07,0.09,1.11
15.494,-0.80,0.12,0.02,0.81
15.504,-0.53,0.24,-0.01,0.58
15.514,-0.32,0.40,-0.01,0.51
15.524,-0.19,0.56,-0.02,0.59
15.534,-0.21,0.63,-0.03,0.67
15.544,-0.31,0.63,-0.05,0.70
15.554,-0.47,0.57,-0.05,0.75
15.564,-0.61,0.46,-0.09,0.78
15.574,-0.67,0.42,-0.12,0.80
15.584,-0.67,0.44,-0.13,0.82
15.594,-0.70,0.53,-0.12,0.89
15.604,-0.72,0.64,-0.08,0.97
15.614,-0.72,0.71,-0.07,1.02
15.624,-0.69,0.66,-0.02,0.95
15.634,-0.66,0.51,-0.01,0.84
15.644,-0.59,0.29,0.04,0.65
15.654,-0.50,0.03,0.09,0.51
15.664,-0.42,-0.19,0.19,0.49
15.674,-0.33,-0.33,0.26,0.53
15.684,-0.21,-0.36,0.28,0.50
15.694,-0.11,-0.27,0.33,0.44
15.704,-0.14,-0.11,0.34,0.38
15.714,-0.15,0.12,0.30,0.35
15.724,-0.31,0.33,0.33,0.56
15.734,-0.41,0.49,0.41,0.76
15.744,-0.39,0.50,0.43,0.77
15.754,-0.51,0.36,0.52,0.81
15.764,-0.57,0.20,0.54,0.81
15.774,-0.49,0.07,0.60,0.78
15.784,-0.31,-0.08,0.63,0.71
15.794,-0.22,-0.14,0.57,0.62
15.804,-0.17,-0.06,0.52,0.55
15.814,-0.13,0.04,0.59,0.61
15.825,-0.01,0.03,0.63,0.63
15.834,-0.03,-0.01,0.60,0.60
15.844,-0.15,-0.07,0.59,0.61
15.854,-0.20,-0.13,0.68,0.72
15.864,-0.14,-0.11,0.75,0.77
15.875,-0.03,-0.04,0.74,0.74
15.885,0.09,0.08,0.75,0.76
15.894,0.28,0.23,0.76,0.84
15.904,0.59,0.44,0.74,1.04
15.914,0.89,0.64,0.68,1.29
15.925,1.07,0.75,0.59,1.43
15.935,0.94,0.85,0.44,1.34
15.945,0.51,1.01,0.26,1.16
15.955,-0.02,1.15,0.14,1.16
15.965,-0.40,1.16,0.14,1.24
15.975,-0.42,1.06,0.07,1.14
15.985,-0.01,0.99,-0.12,1.00
15.995,0.53,0.97,-0.14,1.12
16.005,1.04,0.84,-0.04,1.33
16.015,1.44,0.72,0.05,1.61
16.025,1.52,0.74,0.14,1.70
16.035,1.17,0.71,0.34,1.41
16.045,0.64,0.44,0.61,0.98
16.055,-0.05,0.00,0.76,0.76
16.065,-0.83,-0.37,0.71,1.15
16.075,-1.32,-0.57,0.50,1.52
16.085,-1.38,-0.67,0.15,1.54
16.095,-1.21,-0.70,-0.31,1.44
16.105,-0.96,-0.61,-0.92,1.46
16.115,-0.51,-0.38,-1.51,1.64
16.125,-0.16,-0.11,-2.02,2.03
16.135,0.00,0.14,-2.44,2.45
16.145,-0.30,0.34,-2.69,2.72
16.155,-0.57,0.61,-2.89,3.01
16.165,-0.56,0.89,-2.86,3.05
16.175,-0.43,1.13,-2.65,2.91
16.185,-0.16,1.24,-2.33,2.64
16.195,0.22,1.18,-1.94,2.28
16.205,0.53,1.08,-1.57,1.98
16.215,0.66,0.97,-1.32,1.76
16.225,0.70,0.86,-1.19,1.62
16.235,0.75,0.76,-1.08,1.52
16.245,0.74,0.66,-1.01,1.41
16.255,0.68,0.52,-0.93,1.26
16.265,0.58,0.35,-0.81,1.05
16.275,0.41,0.14,-0.68,0.80
16.285,0.20,-0.08,-0.48,0.52
16.295,-0.08,-0.32,-0.30,0.45
16.305,-0.38,-0.56,-0.27,0.73
16.315,-0.70,-0.71,-0.31,1.04
16.325,-0.93,-0.75,-0.33,1.23
16.335,-1.02,-0.71,-0.35,1.29
16.345,-0.96,-0.61,-0.38,1.20
16.355,-0.80,-0.53,-0.39,1.04
16.365,-0.56,-0.46,-0.41,0.84
16.375,-0.41,-0.41,-0.44,0.73
16.385,-0.30,-0.41,-0.46,0.69
16.395,-0.24,-0.42,-0.46,0.67
16.405,-0.23,-0.43,-0.42,0.65
16.415,-0.20,-0.38,-0.42,0.61
16.425,-0.16,-0.31,-0.41,0.54
16.435,-0.11,-0.22,-0.42,0.49
16.445,-0.08,-0.15,-0.44,0.47
16.455,-0.03,-0.09,-0.40,0.41
16.465,-0.02,-0.04,-0.37,0.37
16.475,0.00,0.03,-0.37,0.38
16.485,0.02,0.14,-0.38,0.41
16.495,-0.01,0.23,-0.46,0.51
16.505,-0.09,0.31,-0.61,0.70
16.515,-0.30,0.48,-0.77,0.96
16.525,-0.66,0.56,-0.79,1.17
16.535,-0.98,0.56,-0.95,1.48
16.545,-1.45,0.53,-1.09,1.89
16.555,-2.03,0.44,-1.18,2.39
16.565,-2.35,0.28,-1.12,2.62
16.575,-2.48,-0.02,-0.89,2.63
16.585,-2.66,-0.47,-0.69,2.79
16.595,-2.87,-0.92,-0.49,3.06
16.605,-2.72,-1.21,-0.25,2.99
16.615,-2.33,-1.33,-0.12,2.69
16.625,-1.82,-1.38,-0.04,2.29
16.635,-1.36,-1.37,-0.12,1.94
16.645,-1.04,-1.12,-0.26,1.56
16.655,-0.82,-0.64,-0.54,1.18
16.665,-0.46,-0.14,-0.98,1.09
16.675,-0.14,0.36,-1.27,1.33
16.685,0.02,0.79,-1.17,1.41
16.695,-0.30,0.90,-1.04,1.41
16.705,-0.93,0.80,-1.02,1.59
16.715,-1.32,0.63,-0.96,1.75
16.725,-1.46,0.22,-0.72,1.64
16.735,-1.22,-0.41,-0.40,1.35
16.745,-0.90,-0.90,-0.15,1.28
16.755,-0.80,-1.17,0.06,1.42
16.765,-0.82,-1.13,-0.18,1.41
16.775,-0.83,-0.80,-0.51,1.27
16.785,-0.70,-0.52,-0.87,1.23
16.795,-0.46,-0.22,-1.00,1.13
16.805,-0.52,0.12,-0.88,1.03
16.815,-0.90,0.30,-0.64,1.14
16.825,-1.10,0.16,-0.31,1.16
16.835,-1.21,-0.41,-0.16,1.29
16.845,-1.11,-1.17,-0.00,1.61
16.855,-1.00,-1.74,0.21,2.02
16.865,-1.17,-1.98,0.18,2.31
16.875,-1.54,-1.84,0.12,2.41
16.885,-1.67,-1.34,0.20,2.14
16.895,-1.46,-0.87,0.11,1.70
16.905,-0.62,-0.54,-0.32,0.88
16.915,0.74,-0.06,-0.45,0.87
16.925,2.03,0.36,-0.35,2.10
16.935,2.90,0.68,-0.19,2.98
16.945,3.23,0.81,-0.15,3.33
16.955,2.91,0.96,-0.16,3.07
16.965,2.18,1.21,0.15,2.50
16.975,1.55,1.26,0.59,2.08
16.985,1.42,0.95,0.63,1.82
16.995,1.67,0.16,0.32,1.70
17.005,2.05,-0.77,-0.24,2.20
17.016,2.25,-1.42,-0.73,2.76
17.026,1.98,-1.39,-0.75,2.54
17.036,1.25,-0.55,-0.12,1.37
17.046,0.86,1.03,1.16,1.78
17.056,1.07,2.58,2.60,3.81
17.066,2.00,3.12,3.06,4.80
17.076,3.99,2.57,2.37,5.30
17.086,5.83,1.42,1.44,6.18
17.096,6.15,0.50,1.13,6.27
17.105,4.76,-0.19,0.94,4.85
17.116,3.25,-0.72,0.69,3.40
17.126,1.76,-1.27,0.28,2.19
17.136,0.45,-1.87,-0.13,1.93
17.146,-0.45,-2.31,-0.32,2.37
17.156,-1.09,-2.33,-0.29,2.59
17.166,-1.50,-1.76,-0.18,2.33
17.176,-1.47,-0.69,-0.06,1.63
17.186,-1.16,0.47,0.05,1.25
17.196,-0.98,1.31,-0.12,1.64
17.206,-0.98,1.88,-0.42,2.17
17.216,-1.20,2.22,-0.56,2.59
17.226,-1.57,2.33,-0.54,2.86
17.236,-1.81,2.28,-0.44,2.94
17.246,-1.71,1.98,-0.41,2.65
17.256,-1.29,1.51,-0.40,2.03
17.266,-0.82,0.88,-0.51,1.31
17.276,-0.36,0.37,-0.62,0.81
17.286,-0.02,0.17,-0.41,0.44
17.296,0.20,0.11,-0.22,0.32
17.306,0.35,0.14,-0.12,0.39
17.316,0.39,0.18,-0.02,0.43
17.326,0.38,0.16,0.02,0.42
17.336,0.30,0.08,0.09,0.33
17.346,0.12,-0.04,0.14,0.18
17.356,-0.10,-0.11,0.15,0.21
17.366,-0.26,-0.17,0.11,0.33
17.376,-0.37,-0.21,0.11,0.44
17.386,-0.39,-0.22,0.13,0.47
17.396,-0.38,-0.15,0.11,0.43
17.406,-0.33,-0.01,0.07,0.34
17.416,-0.31,0.18,0.06,0.36
17.426,-0.35,0.38,0.05,0.52
17.436,-0.45,0.53,0.09,0.70
17.446,-0.59,0.60,0.19,0.86
17.456,-0.74,0.60,0.32,1.01
17.466,-0.94,0.54,0.40,1.16
17.476,-1.20,0.46,0.40,1.34
17.486,-1.33,0.35,0.42,1.43
17.496,-1.32,0.25,0.40,1.40
17.506,-1.25,0.14,0.31,1.30
17.516,-1.13,0.01,0.26,1.16
17.526,-0.97,-0.10,0.21,0.99
17.536,-0.87,-0.14,0.21,0.91
17.546,-0.81,-0.13,0.25,0.86
17.556,-0.79,-0.10,0.23,0.83
17.566,-0.79,-0.05,0.13,0.80
17.576,-0.80,0.07,-0.00,0.81
17.586,-0.89,0.21,-0.03,0.91
17.596,-0.97,0.30,-0.07,1.02
17.606,-1.08,0.33,-0.19,1.14
17.616,-1.14,0.36,-0.16,1.21
17.626,-1.22,0.30,-0.03,1.26
17.636,-1.24,0.14,0.02,1.25
17.646,-1.20,0.02,0.04,1.20
17.656,-1.11,0.03,0.08,1.12
17.666,-0.95,0.05,0.15,0.97
17.676,-0.84,0.10,0.16,0.86
17.686,-0.75,0.12,0.14,0.77
17.696,-0.77,0.19,0.23,0.83
17.706,-0.92,0.14,0.30,0.97
17.716,-1.07,0.02,0.26,1.10
17.726,-1.15,-0.08,0.21,1.17
17.736,-1.14,-0.17,0.34,1.20
17.746,-1.00,-0.25,0.49,1.14
17.756,-0.79,-0.23,0.57,1.00
17.766,-0.58,-0.13,0.55,0.81
17.776,-0.56,-0.09,0.41,0.70
17.786,-0.70,-0.08,0.19,0.73
17.796,-0.96,-0.03,0.23,0.99
17.806,-1.25,-0.14,0.18,1.27
17.816,-1.47,-0.19,0.12,1.49
17.826,-1.42,0.05,0.30,1.45
17.836,-1.16,0.43,0.45,1.32
17.846,-0.98,0.82,0.27,1.30
17.856,-0.95,1.17,-0.07,1.51
17.866,-1.31,1.33,-0.29,1.89
17.876,-2.04,1.14,-0.14,2.34
17.886,-2.76,0.74,0.26,2.86
17.896,-3.05,0.39,0.72,3.16
17.906,-2.84,0.15,0.84,2.96
17.916,-2.26,0.31,0.99,2.49
17.926,-1.55,0.49,1.13,1.98
17.936,-0.52,0.19,0.58,0.81
17.946,0.59,-0.29,-0.61,0.90
17.956,1.81,-0.37,-1.46,2.35
17.966,3.18,-0.23,-1.40,3.49
17.977,4.31,0.06,-1.76,4.66
17.986,4.85,0.74,-2.25,5.40
17.996,4.83,1.75,-2.15,5.57
18.006,4.48,2.55,-1.94,5.51
18.016,3.81,2.92,-2.01,5.20
18.027,2.41,2.91,-2.04,4.30
18.037,0.98,2.46,-2.00,3.31
18.047,-0.00,1.78,-1.85,2.57
18.057,-0.45,1.06,-1.39,1.80
18.067,-0.53,0.27,-0.78,0.98
18.076,-0.02,-0.51,-0.31,0.60
18.087,1.01,-1.24,0.04,1.59
18.097,2.35,-1.89,0.21,3.02
18.106,4.00,-2.22,0.12,4.58
18.116,5.18,-2.02,-0.06,5.56
18.127,5.08,-1.33,-0.15,5.26
18.137,3.59,-0.56,-0.20,3.64
18.147,2.09,0.05,-0.01,2.09
18.157,0.83,0.35,0.26,0.93
18.167,-0.27,0.49,0.50,0.76
18.177,-0.95,0.54,0.67,1.28
18.187,-1.20,0.33,0.63,1.39
18.197,-1.16,-0.06,0.36,1.21
18.207,-0.76,-0.37,0.04,0.85
18.217,0.05,-0.50,-0.14,0.52
18.227,0.85,-0.51,-0.32,1.04
18.237,1.11,-0.41,-0.47,1.28
18.247,0.97,-0.21,-0.50,1.11
18.257,0.65,-0.12,-0.49,0.82
18.267,0.31,-0.12,-0.46,0.57
18.277,-0.30,-0.10,-0.31,0.44
18.287,-0.68,-0.12,-0.13,0.71
18.297,-0.74,-0.23,0.01,0.78
18.307,-0.67,-0.34,0.10,0.76
18.317,-0.49,-0.44,0.13,0.67
18.327,-0.31,-0.51,0.20,0.63
18.337,-0.13,-0.60,0.25,0.66
18.347,-0.07,-0.64,0.26,0.70
18.357,-0.22,-0.59,0.25,0.67
18.367,-0.43,-0.45,0.12,0.64
18.377,-0.65,-0.28,-0.05,0.71
18.387,-0.65,-0.16,-0.18,0.70
18.397,-0.56,-0.10,-0.27,0.63
18.407,-0.36,-0.07,-0.30,0.47
18.417,-0.22,-0.07,-0.33,0.40
18.427,-0.14,-0.07,-0.26,0.30
18.437,-0.11,-0.07,-0.15,0.20
18.447,-0.12,-0.08,-0.08,0.16
18.457,-0.16,-0.10,-0.05,0.20
18.467,-0.18,-0.08,-0.05,0.21
18.477,-0.15,-0.02,-0.06,0.16
18.487,-0.14,0.06,-0.13,0.20
18.497,-0.23,0.10,-0.15,0.29
18.507,-0.34,0.09,-0.11,0.37
18.517,-0.52,0.04,-0.13,0.54
18.527,-0.70,-0.03,-0.15,0.71
18.537,-0.88,-0.22,-0.16,0.92
18.547,-1.05,-0.39,-0.29,1.16
18.557,-1.01,-0.42,-0.30,1.13
18.567,-0.83,-0.42,-0.37,1.01
18.577,-0.78,-0.42,-0.44,0.99
18.587,-0.89,-0.39,-0.49,1.09
18.597,-1.04,-0.42,-0.51,1.23
18.607,-1.14,-0.50,-0.56,1.36
18.617,-1.24,-0.52,-0.49,1.43
18.627,-1.26,-0.53,-0.45,1.44
18.637,-1.16,-0.45,-0.34,1.29
18.647,-1.06,-0.53,-0.24,1.21
18.657,-1.15,-0.67,-0.29,1.36
18.667,-1.40,-0.61,-0.43,1.59
18.677,-1.64,-0.41,-0.55,1.77
18.687,-1.77,-0.27,-0.67,1.91
18.697,-1.70,-0.11,-0.86,1.91
18.707,-1.41,0.01,-0.88,1.66
18.717,-1.05,0.05,-0.67,1.24
18.727,-0.79,0.05,-0.56,0.97
18.737,-0.67,-0.04,-0.36,0.76
18.747,-0.53,-0.40,-0.26,0.71
18.757,-0.51,-0.81,-0.22,0.98
18.767,-0.74,-1.17,-0.21,1.40
18.777,-1.16,-1.31,-0.44,1.80
18.787,-1.67,-1.09,-0.72,2.12
18.797,-2.23,-0.58,-0.98,2.51
18.807,-2.42,-0.03,-0.95,2.60
18.817,-2.09,0.32,-0.74,2.24
18.827,-1.33,0.50,-0.53,1.52
18.837,-0.68,0.29,-0.53,0.91
18.847,-0.34,-0.34,-0.60,0.76
18.857,-0.12,-1.10,-0.52,1.22
18.867,-0.00,-1.73,-0.42,1.78
18.877,-0.17,-2.10,-0.17,2.12
18.887,-0.45,-2.24,0.18,2.29
18.897,-0.46,-2.26,0.19,2.32
18.907,-0.38,-2.12,-0.07,2.15
18.917,-0.57,-1.79,-0.25,1.89
18.927,-0.73,-1.25,-0.63,1.58
18.937,-0.48,-0.13,-0.89,1.01
18.947,-0.55,1.09,-1.02,1.59
18.957,-0.33,2.33,-0.56,2.42
18.967,0.27,3.09,-0.13,3.10
18.977,1.06,3.08,-0.01,3.25
18.987,1.94,2.32,-0.14,3.03
18.997,2.82,1.06,-0.28,3.02
19.008,3.70,-0.05,-0.31,3.71
19.017,3.90,-0.52,-0.36,3.95
19.027,3.33,-0.11,-0.31,3.35
19.037,2.65,0.88,0.34,2.82
19.047,2.55,2.09,1.84,3.78
19.057,3.07,2.88,2.56,4.93
19.067,4.15,2.95,1.82,5.40
19.077,5.26,2.79,1.05,6.04
19.087,5.69,2.52,0.71,6.26
19.097,4.77,2.14,0.49,5.25
19.107,3.44,1.49,0.39,3.77
19.117,2.12,0.51,0.25,2.19
19.127,0.69,-0.61,0.13,0.93
19.137,-0.32,-1.57,0.23,1.62
19.148,-1.02,-2.23,0.31,2.47
19.157,-1.44,-2.36,0.50,2.81
19.167,-1.71,-1.85,0.73,2.63
19.177,-1.69,-0.97,0.96,2.18
19.187,-1.29,0.01,0.97,1.62
19.197,-0.65,0.82,0.75,1.29
19.208,-0.07,1.37,0.42,1.43
19.218,0.28,1.72,0.13,1.74
19.228,0.31,1.86,-0.12,1.88
19.238,-0.05,1.71,-0.37,1.75
19.248,-0.52,1.29,-0.66,1.54
19.258,-0.91,0.64,-1.02,1.51
19.268,-1.15,0.02,-1.27,1.71
19.278,-1.23,-0.30,-1.35,1.85
19.288,-1.24,-0.31,-1.21,1.76
19.298,-1.11,0.03,-0.89,1.42
19.308,-0.94,0.66,-0.48,1.24
19.318,-0.68,1.33,-0.11,1.49
19.328,-0.45,1.83,0.27,1.90
19.338,-0.27,2.05,0.52,2.13
19.348,-0.12,1.86,0.57,1.95
19.358,0.07,1.26,0.49,1.35
19.368,0.17,0.43,0.43,0.63
19.378,0.20,-0.39,0.51,0.67
19.388,0.21,-1.08,0.50,1.21
19.398,0.23,-1.54,0.42,1.61
19.408,0.22,-1.69,0.39,1.75
19.418,0.03,-1.55,0.38,1.60
19.428,-0.22,-1.16,0.37,1.24
19.438,-0.46,-0.66,0.33,0.87
19.448,-0.65,-0.15,0.30,0.73
19.458,-0.64,0.27,0.31,0.76
19.468,-0.45,0.58,0.28,0.78
19.478,-0.25,0.79,0.24,0.86
19.488,-0.18,0.91,0.24,0.96
19.498,-0.21,0.84,0.21,0.90
19.508,-0.30,0.67,0.17,0.75
19.518,-0.53,0.45,0.11,0.70
19.528,-0.75,0.23,0.04,0.79
19.538,-0.89,0.04,-0.07,0.89
19.548,-0.93,-0.10,-0.17,0.95
19.558,-0.88,-0.18,-0.17,0.92
19.568,-0.77,-0.19,-0.10,0.80
19.578,-0.66,-0.14,0.02,0.68
19.588,-0.55,-0.07,0.10,0.56
19.598,-0.53,0.05,0.15,0.56
19.608,-0.62,0.15,0.24,0.68
19.618,-0.80,0.20,0.31,0.88
19.628,-0.98,0.16,0.27,1.03
19.638,-1.07,0.12,0.17,1.09
19.648,-1.11,0.09,0.17,1.13
19.658,-1.12,0.05,0.25,1.15
19.668,-1.08,0.03,0.41,1.15
19.678,-0.97,0.05,0.59,1.14
19.688,-0.82,0.03,0.70,1.08
19.698,-0.70,-0.06,0.67,0.97
19.708,-0.60,-0.21,0.57,0.85
19.718,-0.59,-0.37,0.39,0.79
19.728,-0.65,-0.47,0.18,0.83
19.738,-0.80,-0.55,0.04,0.97
19.748,-0.98,-0.61,-0.06,1.16
19.758,-1.15,-0.70,-0.19,1.36
19.768,-1.29,-0.72,-0.33,1.51
19.778,-1.38,-0.56,-0.36,1.54
19.788,-1.34,-0.25,-0.10,1.37
19.798,-1.15,0.06,0.09,1.16
19.808,-0.93,0.29,-0.05,0.98
19.818,-0.75,0.41,-0.19,0.87
19.828,-0.68,0.38,-0.28,0.82
19.838,-0.76,0.23,-0.42,0.90
19.848,-0.84,0.15,-0.32,0.91
19.858,-0.90,0.20,-0.11,0.93
19.868,-0.85,0.38,0.18,0.94
19.878,-0.76,0.58,0.28,1.00
19.888,-0.76,0.71,0.24,1.07
19.898,-0.80,0.79,0.26,1.15
19.908,-0.89,0.75,0.18,1.18
19.918,-0.98,0.66,0.13,1.19
19.928,-1.06,0.40,0.06,1.13
19.938,-1.13,0.07,-0.14,1.14
19.948,-1.14,-0.05,0.05,1.14
19.958,-0.98,0.03,0.25,1.01
19.968,-0.82,0.27,0.40,0.96
19.978,-0.82,0.57,0.39,1.07
19.988,-0.91,0.84,0.34,1.28
19.998,-1.11,1.06,0.36,1.57
20.008,-1.28,1.14,0.32,1.74
20.018,-1.61,0.99,0.40,1.93
20.028,-1.98,0.52,0.25,2.06
20.038,-2.12,0.13,0.16,2.13
20.048,-1.81,0.29,0.12,1.84
20.058,-1.16,0.44,-0.16,1.26
20.069,-0.45,0.59,-0.48,0.88
20.078,0.37,0.87,-0.74,1.20
20.088,1.24,0.95,-0.94,1.82
20.098,2.21,0.79,-1.28,2.68
20.108,3.08,0.73,-1.69,3.59
20.119,3.96,0.95,-1.76,4.44
20.128,4.75,1.38,-1.49,5.17
20.138,4.91,1.95,-1.31,5.44
20.148,3.92,2.55,-1.06,4.79
20.158,2.21,2.72,-0.75,3.58
20.169,0.96,2.15,-0.61,2.43
20.178,0.24,1.13,-0.49,1.25
20.189,0.10,-0.21,-0.38,0.44
20.198,1.05,-1.71,-0.27,2.02
20.209,3.13,-3.00,-0.17,4.34
20.219,5.39,-3.73,0.03,6.56
20.229,6.20,-3.78,0.26,7.27
20.238,5.00,-3.15,0.54,5.93
20.249,2.94,-1.89,0.60,3.54
20.259,1.31,-0.45,0.62,1.52
20.269,-0.22,0.60,0.63,0.90
20.279,-1.43,1.34,0.64,2.06
20.289,-2.10,1.56,0.52,2.67
20.299,-2.25,1.35,0.30,2.64
20.309,-2.07,0.90,0.17,2.26
20.319,-1.46,0.43,0.13,1.53
20.329,-0.48,-0.03,0.01,0.48
20.339,0.56,-0.40,-0.16,0.70
20.349,1.31,-0.57,-0.37,1.48
20.359,1.72,-0.58,-0.46,1.87
20.369,1.63,-0.53,-0.70,1.85
20.379,1.04,-0.40,-0.85,1.40
20.389,0.17,-0.21,-0.75,0.80
20.399,-0.47,-0.13,-0.65,0.81
20.409,-0.74,-0.11,-0.54,0.92
20.419,-0.77,-0.06,-0.30,0.82
20.429,-0.69,-0.04,-0.09,0.70
20.439,-0.60,-0.06,0.07,0.61
20.449,-0.55,-0.10,0.15,0.58
20.459,-0.72,-0.19,0.12,0.76
20.469,-0.78,-0.30,0.00,0.83
20.479,-0.52,-0.44,-0.19,0.71
20.489,-0.30,-0.53,-0.37,0.71
20.499,-0.17,-0.49,-0.43,0.67
20.509,-0.04,-0.42,-0.36,0.56
20.519,-0.01,-0.36,-0.35,0.50
20.529,-0.09,-0.27,-0.36,0.46
20.539,-0.20,-0.19,-0.35,0.44
20.549,-0.28,-0.14,-0.39,0.50
20.559,-0.39,-0.07,-0.51,0.64
20.569,-0.50,0.06,-0.53,0.73
20.579,-0.72,0.13,-0.48,0.87
20.589,-1.10,0.13,-0.48,1.21
20.599,-1.52,0.09,-0.57,1.63
20.609,-1.81,-0.05,-0.61,1.91
20.619,-1.91,-0.35,-0.46,2.00
20.629,-1.77,-0.72,-0.44,1.96
20.639,-1.35,-1.01,-0.44,1.74
20.649,-0.99,-1.15,-0.42,1.58
20.659,-0.77,-1.12,-0.39,1.41
20.669,-0.79,-1.02,-0.34,1.33
20.679,-1.14,-0.85,-0.36,1.47
20.689,-1.54,-0.55,-0.37,1.68
20.699,-2.00,-0.29,-0.20,2.04
20.709,-2.49,-0.25,-0.13,2.51
20.719,-2.63,-0.32,-0.28,2.67
20.729,-2.32,-0.42,-0.32,2.38
20.739,-1.66,-0.71,-0.19,1.81
20.749,-0.81,-1.00,-0.16,1.30
20.759,-0.07,-1.18,-0.18,1.19
20.769,0.09,-1.18,-0.12,1.19
20.779,-0.13,-1.00,-0.12,1.02
20.789,-0.59,-0.90,0.03,1.07
20.799,-1.18,-1.02,0.01,1.56
20.809,-1.59,-1.13,-0.15,1.95
20.819,-1.79,-1.13,-0.33,2.14
20.829,-1.72,-1.10,-0.48,2.10
20.839,-1.30,-1.01,-0.39,1.69
20.849,-0.51,-0.88,-0.22,1.04
20.859,0.24,-0.74,-0.13,0.78
20.869,0.50,-0.63,-0.17,0.82
20.879,0.45,-0.55,-0.13,0.72
20.889,0.36,-0.57,-0.09,0.68
20.899,0.12,-0.60,-0.27,0.67
20.909,-0.29,-0.46,-0.36,0.65
20.919,-0.65,-0.21,-0.34,0.76
20.929,-1.03,-0.08,-0.38,1.10
20.939,-1.36,-0.17,-0.46,1.45
20.949,-1.51,-0.38,-0.38,1.60
20.959,-1.44,-0.84,-0.38,1.71
20.969,-0.77,-1.20,-0.27,1.45
20.979,0.23,-1.39,0.02,1.41
20.989,0.84,-1.29,0.20,1.55
20.999,1.18,-0.74,0.60,1.52
21.009,1.61,-0.06,0.89,1.84
21.019,1.90,0.67,0.53,2.08
21.029,2.04,1.44,0.05,2.50
21.039,2.26,1.82,-0.19,2.91
21.049,2.83,1.67,-0.51,3.33
21.059,3.23,1.34,-0.87,3.61
21.069,2.81,1.05,-1.25,3.25
21.079,1.95,0.74,-1.44,2.53
21.089,0.84,0.30,-1.54,1.78
21.099,0.07,0.08,-1.41,1.41
21.109,0.15,0.51,-0.81,0.97
21.119,0.95,1.57,0.22,1.85
21.129,1.96,2.73,1.27,3.60
21.139,2.92,3.74,1.84,5.09
21.149,4.13,4.27,1.71,6.18
21.159,4.95,4.02,1.04,6.47
21.169,4.51,2.93,0.45,5.40
21.179,3.45,1.24,0.05,3.66
21.189,2.55,-0.55,-0.06,2.60
21.199,1.53,-2.13,-0.23,2.63
21.209,0.41,-3.17,-0.21,3.20
21.219,-0.46,-3.47,-0.09,3.50
21.229,-1.14,-2.91,0.06,3.13
21.239,-1.66,-1.69,0.13,2.37
21.249,-1.69,-0.28,0.37,1.75
21.259,-1.17,0.92,0.47,1.56
21.270,-0.42,1.83,0.42,1.93
21.280,0.28,2.32,0.40,2.37
21.289,0.65,2.33,0.36,2.45
21.299,0.54,1.85,0.24,1.94
21.309,0.15,1.08,0.05,1.09
21.320,-0.20,0.35,-0.07,0.41
21.330,-0.49,-0.20,-0.25,0.59
21.339,-0.66,-0.55,-0.50,0.99
21.349,-0.67,-0.64,-0.67,1.15
21.360,-0.61,-0.48,-0.69,1.04
21.370,-0.51,-0.20,-0.64,0.85
21.380,-0.42,0.11,-0.62,0.76
21.390,-0.37,0.42,-0.61,0.83
21.400,-0.38,0.67,-0.50,0.92
21.410,-0.45,0.86,-0.36,1.04
21.420,-0.57,0.98,-0.23,1.16
21.430,-0.71,1.04,-0.10,1.26
21.440,-0.74,1.07,0.04,1.30
21.450,-0.71,1.00,0.15,1.23
21.460,-0.61,0.79,0.16,1.01
21.470,-0.48,0.59,0.15,0.78
21.480,-0.37,0.45,0.22,0.62
21.490,-0.36,0.28,0.28,0.53
21.500,-0.34,0.08,0.26,0.43
21.510,-0.28,-0.07,0.27,0.39
21.520,-0.19,-0.16,0.25,0.36
21.530,-0.09,-0.15,0.27,0.32
21.540,-0.04,-0.06,0.34,0.35
21.550,-0.03,0.07,0.39,0.40
21.560,-0.07,0.14,0.39,0.42
21.570,-0.21,0.21,0.46,0.55
21.580,-0.33,0.28,0.55,0.70
21.590,-0.48,0.33,0.51,0.77
21.600,-0.62,0.33,0.47,0.85
21.610,-0.66,0.29,0.37,0.81
21.620,-0.58,0.19,0.27,0.66
21.630,-0.42,0.07,0.14,0.45
21.640,-0.34,-0.02,0.03,0.34
21.650,-0.31,-0.02,0.01,0.32
21.660,-0.34,0.04,0.06,0.35
21.670,-0.32,0.13,0.13,0.37
21.680,-0.28,0.24,0.09,0.38
21.690,-0.36,0.28,0.00,0.46
21.700,-0.54,0.30,-0.08,0.62
21.710,-0.72,0.33,-0.16,0.81
21.720,-0.88,0.39,-0.25,1.00
21.730,-1.00,0.51,-0.34,1.17
21.740,-1.16,0.58,-0.39,1.35
21.750,-1.35,0.55,-0.45,1.53
21.760,-1.51,0.45,-0.49,1.65
21.770,-1.51,0.38,-0.45,1.62
21.780,-1.38,0.35,-0.36,1.47
21.790,-1.26,0.34,-0.24,1.33
21.800,-1.21,0.31,-0.16,1.26
21.810,-1.23,0.24,-0.10,1.26
21.820,-1.37,0.16,-0.04,1.38
21.830,-1.64,-0.01,-0.01,1.64
21.840,-1.94,-0.25,0.06,1.96
21.850,-2.19,-0.54,0.13,2.26
21.860,-2.39,-0.83,0.14,2.53
21.870,-2.31,-0.92,0.25,2.50
21.880,-2.00,-0.77,0.50,2.20
21.890,-1.61,-0.52,0.58,1.79
21.900,-1.26,-0.24,0.47,1.37
21.910,-1.04,0.01,0.23,1.07
21.920,-1.06,0.11,-0.06,1.06
21.930,-1.39,0.03,-0.31,1.43
21.940,-1.80,-0.26,-0.54,1.90
21.950,-2.12,-0.60,-0.72,2.31
21.960,-2.31,-0.69,-0.54,2.47
21.970,-2.33,-0.48,-0.23,2.38
21.980,-2.25,0.03,0.00,2.25
21.990,-2.17,0.60,0.24,2.26
22.000,-2.10,0.82,0.37,2.29
22.010,-2.05,0.68,0.18,2.17
22.020,-1.96,0.42,-0.04,2.01
22.030,-1.66,0.08,-0.39,1.70
22.040,-1.14,-0.03,-0.44,1.22
22.050,-0.51,0.10,-0.32,0.61
22.060,0.15,0.09,-0.90,0.92
22.070,1.05,0.26,-1.64,1.96
22.080,2.14,0.70,-2.13,3.11
22.090,3.59,1.17,-2.00,4.27
22.100,5.09,1.41,-1.47,5.48
22.110,5.74,1.44,-1.69,6.15
22.120,5.42,1.60,-1.67,5.90
22.130,4.32,1.74,-1.20,4.81
22.140,2.85,1.90,-0.95,3.56
22.150,1.46,2.09,-0.74,2.66
22.160,0.48,2.08,-0.85,2.30
22.170,-0.01,1.87,-1.13,2.18
22.180,0.70,1.29,-1.21,1.90
22.190,2.54,0.28,-1.13,2.79
22.200,4.57,-0.57,-0.97,4.71
22.210,5.87,-1.07,-0.58,6.00
22.220,5.60,-1.38,0.06,5.77
22.230,4.24,-1.60,0.59,4.57
22.240,2.65,-1.60,1.05,3.27
22.250,1.47,-1.46,1.35,2.47
22.260,0.62,-1.29,1.47,2.05
22.271,-0.17,-1.11,1.40,1.80
22.280,-0.64,-0.95,1.18,1.64
22.290,-0.83,-0.79,0.79,1.39
22.300,-0.66,-0.74,0.48,1.10
22.311,-0.19,-0.74,0.21,0.79
22.321,0.16,-0.61,0.04,0.63
22.331,0.47,-0.28,-0.05,0.55
22.341,0.62,0.04,-0.15,0.64
22.350,0.35,0.25,-0.24,0.49
22.361,-0.06,0.34,-0.37,0.51
22.371,-0.33,0.31,-0.48,0.66
22.381,-0.42,0.24,-0.53,0.72
22.391,-0.57,0.13,-0.52,0.78
22.400,-0.55,-0.01,-0.41,0.69
22.410,-0.44,-0.21,-0.27,0.56
22.421,-0.32,-0.42,-0.16,0.55
22.431,-0.17,-0.65,-0.03,0.67
22.441,-0.07,-0.80,0.04,0.80
22.451,-0.06,-0.84,0.09,0.85
22.461,-0.12,-0.76,0.09,0.78
22.471,-0.28,-0.68,0.09,0.74
22.481,-0.49,-0.63,0.11,0.81
22.491,-0.50,-0.70,0.13,0.87
22.501,-0.34,-0.82,0.17,0.90
22.511,-0.16,-0.99,0.16,1.02
22.521,-0.03,-1.08,0.12,1.08
22.531,0.05,-1.06,0.08,1.06
22.541,0.05,-0.98,0.03,0.98
22.551,0.02,-0.83,0.04,0.83
22.561,-0.19,-0.62,-0.00,0.65
22.571,-0.41,-0.41,-0.02,0.59
22.581,-0.57,-0.29,-0.04,0.64
22.591,-0.66,-0.20,-0.07,0.70
22.601,-0.66,-0.17,-0.16,0.70
22.611,-0.60,-0.22,-0.28,0.69
22.621,-0.53,-0.31,-0.36,0.71
22.631,-0.44,-0.42,-0.33,0.70
22.641,-0.41,-0.50,-0.35,0.73
22.651,-0.64,-0.51,-0.42,0.92
22.661,-0.98,-0.43,-0.47,1.17
22.671,-1.31,-0.29,-0.53,1.44
22.681,-1.65,-0.16,-0.65,1.78
22.691,-1.95,-0.15,-0.68,2.07
22.701,-2.06,-0.21,-0.54,2.14
22.711,-2.05,-0.46,-0.37,2.13
22.721,-2.12,-0.89,-0.37,2.33
22.731,-2.15,-1.33,-0.48,2.57
22.741,-1.86,-1.50,-0.42,2.42
22.751,-1.48,-1.52,-0.27,2.14
22.761,-1.35,-1.45,-0.19,1.99
22.771,-1.54,-1.11,-0.23,1.91
22.781,-1.77,-0.58,-0.32,1.89
22.791,-1.82,-0.20,-0.41,1.88
22.801,-1.62,0.01,-0.42,1.67
22.811,-1.20,0.04,-0.31,1.24
22.821,-0.68,-0.14,-0.13,0.70
22.831,-0.19,-0.50,-0.07,0.54
22.841,0.06,-0.76,-0.06,0.77
22.851,0.14,-0.83,-0.09,0.85
22.861,-0.30,-0.78,-0.16,0.85
22.871,-1.07,-0.39,-0.31,1.18
22.881,-1.71,0.09,-0.73,1.86
22.891,-1.99,0.44,-0.98,2.26
22.901,-1.77,0.54,-0.93,2.08
22.911,-1.10,0.52,-0.84,1.48
22.921,-0.34,0.37,-0.71,0.87
22.931,0.23,-0.15,-0.47,0.55
22.941,0.60,-0.84,-0.21,1.05
22.951,0.72,-1.45,-0.02,1.62
22.961,0.43,-1.80,0.02,1.85
22.971,-0.24,-1.83,0.18,1.86
22.981,-0.91,-1.46,0.50,1.79
22.991,-1.45,-1.21,0.57,1.97
23.001,-1.73,-1.22,0.32,2.14
23.011,-1.29,-0.95,0.60,1.71
23.021,-0.73,-0.74,0.77,1.29
23.031,-0.06,-0.47,0.59,0.76
23.041,0.60,-0.01,0.44,0.75
23.051,1.06,0.51,0.22,1.19
23.061,1.69,1.03,0.06,1.98
23.071,2.49,1.32,0.05,2.82
23.081,3.36,1.21,-0.23,3.57
23.091,3.52,0.99,-0.76,3.73
23.101,3.04,0.90,-1.13,3.37
23.111,2.09,0.84,-1.33,2.62
23.121,1.05,0.95,-1.24,1.89
23.131,0.36,1.18,-0.87,1.51
23.141,0.51,1.48,-0.45,1.63
23.151,1.60,1.86,0.08,2.45
23.161,2.90,2.21,0.49,3.68
23.171,4.15,2.42,0.53,4.83
23.181,5.35,2.48,0.17,5.90
23.191,5.76,2.40,-0.12,6.24
23.201,5.25,1.82,-0.38,5.56
23.211,4.27,0.80,-0.46,4.37
23.221,3.13,-0.33,-0.48,3.18
23.231,1.57,-1.10,-0.39,1.95
23.241,0.09,-1.45,-0.27,1.47
23.251,-1.07,-1.45,-0.15,1.81
23.261,-1.89,-1.09,-0.02,2.18
23.271,-2.22,-0.52,0.14,2.28
23.281,-1.98,0.04,0.40,2.02
23.291,-1.30,0.37,0.45,1.42
23.301,-0.44,0.48,0.25,0.69
23.311,0.29,0.61,-0.03,0.68
23.321,0.54,0.77,-0.25,0.97
23.331,0.31,0.84,-0.39,0.98
23.342,-0.01,0.79,-0.47,0.91
23.351,-0.19,0.63,-0.55,0.86
23.361,-0.34,0.49,-0.67,0.90
23.372,-0.46,0.43,-0.83,1.04
23.381,-0.47,0.50,-0.92,1.15
23.391,-0.45,0.62,-0.92,1.20
23.401,-0.40,0.70,-0.87,1.19
23.411,-0.31,0.68,-0.69,1.02
23.421,-0.26,0.56,-0.50,0.80
23.431,-0.25,0.45,-0.31,0.60
23.442,-0.35,0.40,-0.08,0.54
23.452,-0.50,0.30,0.07,0.58
23.461,-0.62,0.16,0.16,0.66
23.472,-0.62,-0.03,0.21,0.65
23.481,-0.60,-0.20,0.24,0.67
23.492,-0.49,-0.38,0.33,0.70
23.502,-0.35,-0.54,0.42,0.77
23.512,-0.25,-0.63,0.44,0.81
23.522,-0.19,-0.62,0.49,0.81
23.532,-0.19,-0.55,0.53,0.79
23.542,-0.21,-0.46,0.53,0.73
23.552,-0.21,-0.35,0.50,0.65
23.562,-0.27,-0.21,0.54,0.64
23.572,-0.32,-0.12,0.58,0.67
23.581,-0.38,-0.12,0.58,0.70
23.592,-0.42,-0.11,0.55,0.70
23.602,-0.49,-0.15,0.51,0.72
23.612,-0.56,-0.25,0.46,0.77
23.622,-0.60,-0.33,0.38,0.78
23.632,-0.65,-0.39,0.37,0.84
23.642,-0.71,-0.40,0.37,0.90
23.652,-0.77,-0.31,0.34,0.90
23.662,-0.83,-0.17,0.22,0.88
23.672,-0.89,0.01,0.07,0.89
23.682,-0.95,0.22,-0.02,0.97
23.692,-0.99,0.42,-0.01,1.08
23.702,-1.03,0.55,-0.06,1.17
23.712,-1.07,0.60,-0.12,1.24
23.722,-1.13,0.58,-0.12,1.28
23.732,-1.22,0.51,-0.20,1.34
23.742,-1.34,0.43,-0.35,1.45
23.752,-1.45,0.36,-0.41,1.55
23.762,-1.43,0.29,-0.45,1.53
23.772,-1.29,0.27,-0.40,1.38
23.782,-1.09,0.24,-0.21,1.14
23.792,-0.95,0.28,-0.08,0.99
23.802,-0.85,0.40,-0.11,0.94
23.812,-0.85,0.57,-0.15,1.04
23.822,-0.82,0.60,-0.13,1.02
23.832,-0.86,0.49,-0.04,0.99
23.842,-0.98,0.29,-0.03,1.02
23.852,-1.02,0.08,0.01,1.02
23.862,-1.00,-0.26,0.13,1.04
23.872,-0.85,-0.53,0.23,1.03
23.882,-0.53,-0.55,0.20,0.79
23.892,-0.37,-0.31,0.25,0.54
23.902,-0.53,-0.00,0.41,0.67
23.912,-0.79,0.17,0.43,0.92
23.922,-1.02,0.24,0.33,1.10
23.932,-1.17,0.26,0.24,1.22
23.942,-1.26,0.19,0.20,1.29
23.952,-1.30,0.07,0.18,1.31
23.962,-1.31,0.01,0.14,1.31
23.972,-1.35,0.01,0.18,1.36
23.982,-1.44,0.03,0.22,1.45
23.992,-1.40,0.22,0.24,1.44
24.002,-1.33,0.49,0.39,1.47
24.012,-1.29,0.74,0.38,1.53
24.022,-1.40,0.82,0.12,1.62
24.032,-1.67,0.73,0.04,1.82
24.042,-1.94,0.40,-0.21,1.99
24.052,-1.96,0.03,-0.65,2.06
24.062,-1.70,0.04,-0.49,1.77
24.072,-1.29,0.07,-0.35,1.34
24.082,-0.43,0.15,-0.32,0.55
24.092,0.82,0.68,-0.47,1.16
24.102,2.37,1.36,-0.81,2.85
24.112,3.90,1.99,-1.22,4.54
24.122,4.71,2.16,-1.85,5.51
24.132,4.78,1.69,-2.36,5.59
24.142,4.47,0.72,-2.62,5.23
24.152,4.06,0.10,-2.50,4.77
24.162,2.48,-0.11,-2.09,3.25
24.172,0.27,-0.04,-1.48,1.50
24.182,-0.67,0.06,-0.75,1.01
24.192,-0.58,0.04,-0.29,0.65
24.202,-0.01,0.08,0.09,0.12
24.212,0.51,0.13,0.58,0.79
24.222,1.97,-0.10,0.77,2.11
24.232,3.96,-0.54,0.62,4.04
24.242,5.68,-0.85,0.86,5.81
24.252,6.16,-1.06,1.17,6.36
24.262,5.07,-1.35,1.15,5.37
24.272,3.62,-1.63,1.03,4.10
24.282,1.86,-1.77,0.89,2.72
24.292,0.68,-1.58,0.67,1.84
24.302,-0.05,-0.95,0.23,0.98
24.312,-0.75,-0.02,-0.23,0.79
24.322,-1.38,0.85,-0.65,1.74
24.332,-1.93,1.48,-0.86,2.58
24.342,-1.94,1.89,-0.88,2.85
24.352,-1.66,1.97,-0.87,2.71
24.362,-1.20,1.65,-0.82,2.20
24.372,-0.59,0.88,-0.75,1.30
24.382,-0.04,-0.09,-0.70,0.71
24.392,0.41,-1.01,-0.71,1.30
24.402,0.63,-1.66,-0.71,1.91
24.412,0.60,-1.99,-0.70,2.19
24.422,0.49,-1.94,-0.73,2.13
24.432,0.31,-1.67,-0.73,1.85
24.443,0.04,-1.25,-0.64,1.41
24.452,-0.06,-0.73,-0.52,0.90
24.462,-0.13,-0.24,-0.36,0.46
24.472,-0.24,0.08,-0.21,0.32
24.482,-0.28,0.24,-0.06,0.37
24.492,-0.26,0.21,0.04,0.34
24.502,-0.19,0.07,0.03,0.21
24.512,-0.24,-0.05,0.01,0.25
24.522,-0.43,-0.12,0.04,0.45
24.533,-0.46,-0.24,0.04,0.52
24.543,-0.34,-0.39,-0.02,0.52
24.552,-0.17,-0.56,-0.05,0.58
24.562,-0.00,-0.70,-0.10,0.71
24.573,0.10,-0.84,-0.16,0.86
24.583,0.08,-0.89,-0.25,0.93
24.593,-0.05,-0.83,-0.28,0.87
24.603,-0.24,-0.65,-0.32,0.76
24.613,-0.45,-0.42,-0.30,0.69
24.623,-0.69,-0.18,-0.29,0.77
24.633,-0.93,-0.00,-0.30,0.98
24.643,-1.08,0.16,-0.34,1.15
24.653,-1.15,0.25,-0.32,1.22
24.663,-1.12,0.18,-0.38,1.19
24.673,-0.91,-0.01,-0.45,1.01
24.683,-0.57,-0.22,-0.58,0.84
24.693,-0.19,-0.34,-0.71,0.81
24.703,0.06,-0.38,-0.68,0.78
24.713,0.09,-0.35,-0.64,0.73
24.723,-0.12,-0.25,-0.57,0.63
24.733,-0.88,-0.31,-0.57,1.10
24.743,-1.56,-0.40,-0.62,1.72
24.753,-1.92,-0.39,-0.51,2.02
24.763,-1.89,-0.38,-0.42,1.97
24.773,-1.66,-0.32,-0.50,1.77
24.783,-1.24,-0.25,-0.72,1.46
24.793,-0.66,-0.17,-0.92,1.15
24.803,-0.50,-0.05,-0.83,0.97
24.813,-0.63,0.15,-0.86,1.08
24.823,-1.05,0.29,-0.72,1.31
24.833,-1.72,-0.06,-0.61,1.83
24.843,-1.99,-0.53,-0.69,2.17
24.853,-1.85,-0.68,-0.62,2.07
24.863,-1.89,-0.66,-0.55,2.07
24.873,-2.01,-0.47,-0.48,2.12
24.883,-2.05,-0.11,-0.56,2.13
24.893,-1.85,0.18,-0.58,1.95
24.903,-1.23,0.23,-0.32,1.29
24.913,-0.70,-0.08,-0.09,0.71
24.923,-0.53,-0.76,-0.18,0.94
24.933,-0.44,-1.37,-0.23,1.45
24.943,-0.59,-1.86,-0.15,1.96
24.953,-0.99,-2.33,-0.15,2.53
24.963,-1.38,-2.48,0.01,2.84
24.973,-1.58,-2.27,0.38,2.79
24.983,-1.54,-2.04,0.54,2.61
24.993,-1.24,-1.89,0.39,2.29
25.003,-0.78,-1.79,0.34,1.98
25.013,-0.34,-1.90,0.22,1.94
25.023,0.03,-1.88,0.01,1.88
25.033,0.08,-1.73,-0.04,1.73
25.043,0.03,-1.52,0.10,1.53
25.053,-0.14,-1.22,0.18,1.24
25.063,-0.46,-0.99,-0.11,1.09
25.073,-0.44,-0.69,0.09,0.82
25.083,-0.04,-0.39,0.31,0.50
25.093,0.85,-0.05,0.38,0.93
25.103,1.97,0.17,0.18,1.98
25.113,3.01,0.41,-0.51,3.08
25.123,3.79,0.84,-1.52,4.17
25.133,4.09,1.41,-2.24,4.87
25.143,3.86,2.05,-2.75,5.17
25.153,3.50,2.70,-2.93,5.30
25.163,3.04,3.13,-2.66,5.11
25.173,2.26,3.24,-1.94,4.40
25.183,1.54,3.10,-0.98,3.60
25.194,1.28,2.78,-0.05,3.06
25.203,1.44,2.17,0.49,2.65
25.213,2.19,1.60,0.79,2.83
25.223,3.29,1.45,1.37,3.85
25.233,3.73,1.35,1.80,4.36
25.243,3.49,1.15,1.66,4.03
25.253,2.93,0.89,1.45,3.39
25.263,2.04,0.35,1.09,2.34
25.273,1.19,-0.39,0.72,1.44
25.283,0.39,-1.07,0.45,1.23
25.293,-0.30,-1.54,0.27,1.59
25.303,-0.81,-1.63,0.15,1.83
25.313,-1.10,-1.40,0.05,1.79
25.323,-1.24,-0.84,0.01,1.49
25.333,-1.09,-0.05,-0.05,1.09
25.343,-0.63,0.78,-0.08,1.01
25.353,-0.10,1.52,0.01,1.52
25.363,0.38,2.08,0.14,2.12
25.373,0.66,2.29,0.15,2.39
25.383,0.65,2.16,0.02,2.25
25.393,0.34,1.74,-0.20,1.79
25.403,-0.05,1.22,-0.46,1.31
25.413,-0.49,0.80,-0.69,1.17
25.423,-0.95,0.49,-0.90,1.39
25.433,-1.35,0.31,-1.07,1.75
25.443,-1.55,0.27,-1.05,1.89
25.453,-1.57,0.28,-0.86,1.81
25.463,-1.40,0.29,-0.59,1.55
25.473,-1.06,0.26,-0.37,1.15
25.483,-0.66,0.25,-0.11,0.71
25.493,-0.33,0.23,0.23,0.47
25.503,-0.15,0.11,0.53,0.56
25.513,-0.07,-0.12,0.59,0.60
25.524,-0.17,-0.37,0.51,0.65
25.533,-0.29,-0.49,0.46,0.73
25.543,-0.39,-0.49,0.48,0.79
25.554,-0.44,-0.44,0.60,0.87
25.563,-0.42,-0.35,0.63,0.83
25.573,-0.40,-0.17,0.64,0.78
25.583,-0.34,-0.06,0.63,0.72
25.594,-0.33,-0.03,0.55,0.64
25.603,-0.37,-0.07,0.45,0.58
25.614,-0.41,-0.07,0.36,0.55
25.624,-0.48,-0.00,0.40,0.62
25.633,-0.60,0.05,0.45,0.75
25.644,-0.74,0.06,0.47,0.88
25.654,-0.86,0.08,0.47,0.98
25.664,-0.96,0.05,0.40,1.04
25.674,-0.96,-0.00,0.36,1.03
25.684,-0.92,-0.11,0.30,0.98
25.694,-0.91,-0.17,0.13,0.93
25.704,-0.90,-0.14,0.04,0.91
25.714,-0.92,-0.09,-0.01,0.92
25.724,-0.93,0.01,-0.10,0.93
25.734,-0.96,0.15,-0.08,0.97
25.744,-0.97,0.31,-0.03,1.02
25.754,-0.96,0.42,-0.10,1.05
25.764,-0.92,0.59,-0.21,1.11
25.774,-0.95,0.72,-0.27,1.22
25.784,-1.01,0.78,-0.31,1.31
25.794,-1.15,0.74,-0.35,1.41
25.804,-1.36,0.62,-0.42,1.55
25.814,-1.59,0.47,-0.51,1.73
25.824,-1.83,0.39,-0.56,1.95
25.834,-2.04,0.33,-0.48,2.12
25.844,-2.17,0.17,-0.42,2.21
25.854,-2.15,0.07,-0.48,2.21
25.864,-1.93,0.06,-0.44,1.98
25.874,-1.56,0.09,-0.35,1.60
25.884,-1.31,0.13,-0.41,1.38
25.894,-1.34,0.11,-0.43,1.41
25.904,-1.56,0.01,-0.36,1.60
25.914,-2.01,-0.11,-0.20,2.03
25.924,-2.55,-0.18,-0.02,2.55
25.934,-2.89,-0.23,0.40,2.92
25.944,-2.79,-0.20,0.91,2.94
25.954,-2.30,-0.10,0.96,2.49
25.964,-1.54,0.15,0.68,1.69
25.974,-0.81,0.50,0.29,0.99
25.984,-0.42,0.61,-0.23,0.78
25.994,-0.37,0.63,-0.25,0.78
26.004,-0.47,0.42,-0.23,0.67
26.014,-0.28,-0.04,-0.97,1.01
26.024,0.40,-0.07,-1.37,1.43
26.034,1.11,0.36,-1.33,1.77
26.044,2.35,0.80,-0.61,2.56
26.054,3.64,1.14,-0.58,3.86
26.064,4.29,1.72,-1.11,4.75
26.074,4.43,2.38,-0.88,5.11
26.084,4.01,2.54,-0.66,4.80
26.094,3.26,2.28,-0.85,4.06
26.104,2.05,1.73,-0.98,2.86
26.114,1.18,0.79,-1.14,1.82
26.124,0.97,-0.29,-1.31,1.65
26.134,1.31,-1.22,-1.12,2.12
26.144,2.11,-1.93,-0.72,2.95
26.154,3.16,-2.42,-0.35,4.00
26.164,4.41,-2.68,-0.16,5.16
26.174,5.39,-2.39,0.02,5.90
26.184,5.34,-1.51,0.27,5.55
26.194,3.96,-0.27,0.43,3.99
26.204,2.28,0.68,0.43,2.41
26.214,1.18,0.99,0.39,1.59
26.224,0.38,0.80,0.48,1.01
26.234,-0.21,0.34,0.50,0.64
26.244,-0.68,-0.23,0.30,0.77
26.254,-0.87,-0.70,0.05,1.12
26.264,-0.90,-0.93,-0.23,1.31
26.274,-0.72,-0.72,-0.50,1.14
26.284,-0.36,-0.15,-0.81,0.90
26.294,-0.14,0.50,-1.05,1.17
26.304,-0.19,1.00,-1.06,1.47
26.314,-0.21,1.20,-0.95,1.55
26.324,-0.03,1.05,-0.78,1.30
26.334,0.09,0.61,-0.53,0.81
26.344,-0.03,0.07,-0.37,0.38
26.354,-0.12,-0.42,-0.27,0.52
26.364,-0.01,-0.81,-0.22,0.84
26.374,0.16,-1.08,-0.21,1.11
26.384,0.20,-1.13,-0.23,1.17
26.394,0.01,-0.97,-0.30,1.02
26.404,-0.21,-0.71,-0.33,0.81
26.414,-0.31,-0.45,-0.35,0.65
26.424,-0.37,-0.28,-0.41,0.62
26.434,-0.45,-0.15,-0.44,0.65
26.444,-0.46,-0.06,-0.49,0.67
26.454,-0.42,-0.03,-0.50,0.66
26.464,-0.34,-0.05,-0.50,0.60
26.474,-0.24,-0.06,-0.45,0.51
26.484,-0.17,-0.07,-0.39,0.43
26.494,-0.29,-0.12,-0.36,0.47
26.504,-0.51,-0.13,-0.37,0.64
26.514,-0.70,-0.13,-0.38,0.81
26.524,-0.90,-0.10,-0.41,0.99
26.534,-0.98,-0.14,-0.41,1.07
26.544,-1.03,-0.20,-0.33,1.10
26.554,-0.99,-0.26,-0.39,1.10
26.564,-1.02,-0.36,-0.45,1.17
26.574,-1.16,-0.44,-0.57,1.37
26.584,-1.32,-0.39,-0.66,1.53
26.594,-1.33,-0.26,-0.69,1.52
26.605,-1.22,-0.16,-0.71,1.42
26.614,-1.11,-0.09,-0.70,1.32
26.624,-0.96,-0.05,-0.67,1.17
26.634,-0.91,-0.07,-0.71,1.16
26.644,-1.09,-0.09,-0.75,1.32
26.654,-1.23,-0.12,-0.68,1.41
26.665,-1.44,-0.23,-0.53,1.55
26.675,-1.84,-0.41,-0.32,1.91
26.684,-2.41,-0.67,-0.27,2.52
26.695,-2.78,-0.83,-0.24,2.91
26.705,-2.78,-0.94,-0.46,2.97
26.714,-2.21,-1.14,-0.74,2.59
26.724,-1.30,-1.28,-0.80,1.99
26.734,-0.20,-1.07,-0.82,1.36
26.745,0.50,-0.51,-0.99,1.22
26.754,0.18,0.13,-0.97,0.99
26.765,-0.66,0.39,-0.90,1.18
26.774,-1.58,0.29,-0.72,1.76
26.785,-2.37,-0.10,-0.44,2.41
26.795,-2.79,-0.66,-0.20,2.88
26.805,-2.92,-1.19,-0.02,3.16
26.814,-2.91,-1.64,-0.07,3.34
26.825,-2.66,-1.83,-0.31,3.25
26.835,-2.01,-1.65,-0.52,2.65
26.845,-0.75,-1.21,-0.63,1.56
26.855,0.31,-0.73,-0.67,1.03
26.865,0.77,-0.37,-0.73,1.12
26.875,0.71,-0.24,-0.75,1.06
26.885,0.30,-0.44,-0.47,0.71
26.895,-0.28,-0.91,-0.33,1.01
26.905,-0.51,-1.05,-0.06,1.17
26.915,-0.42,-1.14,0.64,1.37
26.925,0.22,-1.35,1.27,1.87
26.935,1.42,-1.50,1.66,2.65
26.945,2.72,-1.28,1.91,3.56
26.955,4.08,-0.95,1.64,4.50
26.965,5.24,-0.60,0.80,5.34
26.975,5.24,0.09,-0.26,5.25
26.985,4.10,1.21,-1.17,4.43
26.995,2.65,2.36,-1.79,3.98
27.005,1.34,3.23,-1.86,3.96
27.015,0.43,3.63,-1.45,3.93
27.025,0.24,3.51,-0.87,3.62
27.035,0.92,3.00,-0.27,3.15
27.045,2.10,2.25,0.10,3.09
27.055,3.29,1.74,0.34,3.73
27.065,4.23,1.64,0.89,4.62
27.075,4.88,1.60,1.03,5.24
27.085,4.87,1.41,0.93,5.16
27.095,4.19,0.94,0.61,4.33
27.105,2.86,0.30,0.33,2.89
27.115,1.16,-0.20,0.21,1.19
27.125,-0.11,-0.70,0.14,0.72
27.135,-1.06,-1.07,0.10,1.51
27.145,-1.66,-1.21,0.16,2.06
27.155,-1.85,-1.09,0.27,2.17
27.165,-1.51,-0.69,0.29,1.68
27.175,-0.72,-0.08,0.29,0.78
27.185,0.01,0.63,0.18,0.65
27.195,0.36,1.33,0.02,1.38
27.205,0.41,1.86,-0.11,1.90
27.215,0.30,2.00,-0.22,2.03
27.225,0.16,1.79,-0.41,1.84
27.235,-0.01,1.38,-0.55,1.48
27.245,-0.27,0.90,-0.63,1.13
27.255,-0.57,0.53,-0.70,1.05
27.265,-0.78,0.32,-0.79,1.16
27.275,-0.80,0.25,-0.81,1.17
27.285,-0.70,0.24,-0.73,1.04
27.295,-0.57,0.20,-0.65,0.89
27.305,-0.39,0.18,-0.60,0.74
27.315,-0.24,0.21,-0.45,0.55
27.325,-0.16,0.25,-0.28,0.41
27.335,-0.17,0.31,-0.15,0.38
27.345,-0.20,0.35,-0.06,0.40
27.355,-0.26,0.36,0.02,0.45
27.365,-0.41,0.36,0.08,0.55
27.375,-0.54,0.31,0.16,0.64
27.385,-0.61,0.26,0.21,0.70
27.395,-0.62,0.20,0.24,0.70
27.405,-0.58,0.12,0.35,0.69
27.415,-0.52,-0.02,0.40,0.65
27.425,-0.47,-0.15,0.42,0.65
27.435,-0.42,-0.21,0.45,0.65
27.445,-0.43,-0.21,0.51,0.70
27.455,-0.53,-0.19,0.59,0.81
27.465,-0.65,-0.18,0.65,0.94
27.475,-0.79,-0.19,0.66,1.05
27.485,-0.93,-0.20,0.74,1.20
27.495,-1.03,-0.24,0.77,1.31
27.505,-1.11,-0.26,0.78,1.39
27.515,-1.16,-0.29,0.75,1.42
27.525,-1.14,-0.31,0.76,1.41
27.535,-1.05,-0.29,0.77,1.33
27.545,-0.94,-0.32,0.67,1.20
27.555,-0.87,-0.29,0.49,1.04
27.565,-0.82,-0.17,0.31,0.90
27.575,-0.98,-0.00,0.13,0.99
27.585,-1.25,0.08,-0.06,1.26
27.595,-1.59,0.13,-0.23,1.61
27.605,-1.79,0.20,-0.53,1.88
27.615,-1.96,0.34,-0.75,2.13
27.625,-2.02,0.57,-0.71,2.21
27.635,-1.90,0.75,-0.61,2.14
27.645,-1.79,0.80,-0.47,2.01
27.655,-1.74,0.77,-0.34,1.93
27.665,-1.55,0.82,-0.32,1.78
27.675,-1.50,0.90,-0.42,1.80
27.685,-1.67,0.87,-0.64,1.99
27.696,-1.86,0.68,-0.60,2.07
27.705,-2.01,0.31,-0.61,2.12
27.715,-2.29,0.05,-0.39,2.33
27.725,-2.71,-0.01,0.35,2.73
27.736,-2.86,-0.13,0.83,2.98
27.745,-2.63,-0.12,0.83,2.76
27.756,-2.00,0.11,0.83,2.17
27.765,-1.30,0.41,0.69,1.53
27.775,-0.88,0.50,0.49,1.12
27.786,-0.93,0.21,0.31,1.00
27.796,-1.42,-0.30,0.25,1.47
27.805,-1.90,-0.98,0.03,2.14
27.816,-1.89,-1.38,-0.10,2.34
27.825,-1.59,-1.15,-0.12,1.96
27.836,-0.76,-0.88,-0.74,1.38
27.846,0.45,-0.40,-1.16,1.31
27.856,2.08,0.25,-1.44,2.55
27.866,4.46,0.86,-1.36,4.74
27.876,6.27,1.56,-1.92,6.74
27.886,6.51,2.38,-2.28,7.30
27.896,5.69,2.81,-1.85,6.61
27.906,4.92,2.88,-1.23,5.84
27.916,4.24,2.71,-0.99,5.13
27.926,2.56,2.23,-1.16,3.59
27.936,0.35,1.46,-1.23,1.94
27.946,-0.93,0.62,-1.39,1.78
27.956,-0.75,-0.24,-1.42,1.62
27.966,0.95,-1.00,-1.25,1.86
27.976,3.39,-1.46,-0.91,3.80
27.986,5.39,-1.47,-0.13,5.59
27.996,5.85,-1.16,0.59,6.00
28.006,4.70,-0.57,0.77,4.80
28.016,3.06,0.10,0.83,3.17
28.026,1.59,0.38,0.86,1.85
28.036,0.59,0.29,0.87,1.09
28.046,-0.11,-0.09,0.82,0.83
28.056,-0.50,-0.71,0.66,1.09
28.066,-0.54,-1.46,0.26,1.58
28.076,-0.26,-2.12,-0.17,2.14
28.086,0.12,-2.31,-0.56,2.38
28.096,0.23,-1.83,-0.80,2.01
28.106,0.03,-0.81,-0.99,1.27
28.116,-0.34,0.22,-1.09,1.16
28.126,-0.49,0.88,-1.12,1.50
28.136,-0.54,1.16,-1.08,1.68
28.146,-0.71,1.11,-0.99,1.65
28.156,-0.70,0.74,-0.78,1.28
28.166,-0.60,0.20,-0.60,0.87
28.176,-0.43,-0.34,-0.46,0.72
28.186,-0.12,-0.78,-0.35,0.87
28.196,0.17,-1.08,-0.26,1.12
28.206,0.36,-1.18,-0.24,1.26
28.216,0.38,-1.09,-0.26,1.19
28.226,0.23,-0.84,-0.23,0.90
28.236,-0.09,-0.52,-0.20,0.56
28.246,-0.36,-0.28,-0.24,0.52
28.256,-0.56,-0.13,-0.30,0.65
28.266,-0.67,-0.04,-0.30,0.73
28.276,-0.57,-0.03,-0.28,0.64
28.286,-0.33,-0.10,-0.23,0.41
28.296,-0.11,-0.18,-0.20,0.29
28.306,0.01,-0.20,-0.23,0.30
28.316,-0.02,-0.15,-0.30,0.33
28.326,-0.15,-0.08,-0.35,0.39
28.336,-0.36,0.02,-0.35,0.51
28.346,-0.59,0.12,-0.31,0.68
28.356,-0.87,0.19,-0.26,0.92
28.366,-1.13,0.20,-0.26,1.18
28.376,-1.30,0.15,-0.20,1.33
28.386,-1.23,0.02,-0.12,1.23
28.396,-0.94,-0.18,-0.02,0.96
28.406,-0.60,-0.55,0.05,0.81
28.416,-0.35,-0.91,-0.04,0.97
28.426,-0.27,-1.09,-0.19,1.14
28.436,-0.45,-1.06,-0.34,1.20
28.446,-0.88,-0.88,-0.59,1.38
28.456,-1.51,-0.57,-0.81,1.80
28.466,-2.06,-0.11,-0.70,2.18
28.476,-2.42,0.19,-0.64,2.51
28.486,-2.85,0.26,-0.74,2.96
28.496,-3.04,0.15,-0.66,3.11
28.506,-2.75,-0.08,-0.39,2.78
28.516,-2.03,-0.52,0.02,2.09
28.526,-1.14,-1.04,0.23,1.56
28.536,-0.38,-1.43,0.08,1.48
28.546,-0.10,-1.53,-0.13,1.54
28.556,-0.43,-1.28,-0.66,1.50
28.566,-1.25,-0.70,-0.99,1.75
28.576,-2.06,-0.20,-0.87,2.24
28.586,-2.55,0.23,-0.84,2.69
28.596,-2.78,0.48,-0.76,2.92
28.606,-2.89,0.19,-0.76,3.00
28.616,-2.63,-0.26,-0.88,2.79
28.626,-1.96,-0.51,-0.97,2.24
28.636,-1.29,-0.59,-1.01,1.74
28.646,-0.90,-0.63,-0.84,1.38
28.656,-0.55,-0.65,-0.53,1.00
28.666,-0.29,-0.79,-0.17,0.86
28.676,-0.13,-1.16,-0.01,1.17
28.686,-0.02,-1.61,0.10,1.61
28.696,-0.03,-2.01,0.10,2.02
28.706,-0.26,-2.12,-0.00,2.13
28.716,-0.54,-1.78,-0.26,1.88
28.726,-0.93,-1.23,-0.52,1.63
28.737,-1.27,-0.63,-0.86,1.65
28.746,-1.05,0.13,-0.49,1.16
28.756,-0.23,0.41,0.03,0.47
28.766,1.08,0.18,0.38,1.16
28.776,2.34,-0.22,0.66,2.44
28.786,3.19,-0.56,0.76,3.32
28.796,3.58,-0.72,0.20,3.65
28.806,3.45,-0.53,-0.64,3.55
28.816,2.99,-0.10,-1.31,3.26
28.826,2.68,0.72,-1.63,3.22
28.837,2.66,1.58,-1.70,3.53
28.846,2.46,2.35,-1.48,3.72
28.856,1.91,3.02,-0.86,3.68
28.866,1.69,3.48,0.23,3.87
28.877,2.04,3.51,1.21,4.23
28.887,2.72,2.95,1.39,4.25
28.897,3.74,2.03,1.15,4.41
28.906,4.76,0.96,0.96,4.95
28.917,5.17,-0.08,1.07,5.28
28.926,4.87,-0.86,0.96,5.04
28.937,4.01,-1.29,0.92,4.31
28.947,2.58,-1.65,0.91,3.19
28.957,1.14,-1.88,1.08,2.45
28.967,-0.03,-1.97,1.08,2.25
28.977,-0.82,-1.71,1.10,2.19
28.987,-1.25,-1.17,0.99,1.98
28.997,-1.39,-0.47,0.86,1.70
29.007,-1.20,0.28,0.66,1.39
29.017,-0.89,0.96,0.26,1.33
29.027,-0.56,1.57,-0.22,1.68
29.037,-0.23,1.98,-0.62,2.08
29.047,-0.00,2.03,-0.88,2.21
29.057,0.02,1.73,-0.99,1.99
29.067,-0.10,1.26,-1.07,1.65
29.077,-0.35,0.81,-1.12,1.42
29.087,-0.71,0.56,-1.15,1.46
29.097,-1.07,0.44,-1.12,1.61
29.107,-1.20,0.44,-0.97,1.61
29.117,-1.13,0.50,-0.79,1.47
29.127,-0.88,0.62,-0.62,1.25
29.137,-0.64,0.73,-0.50,1.09
29.147,-0.46,0.73,-0.29,0.91
29.157,-0.28,0.55,-0.06,0.62
29.167,-0.16,0.21,0.11,0.29
29.177,-0.08,-0.08,0.20,0.23
29.187,-0.09,-0.27,0.30,0.42
29.197,-0.15,-0.38,0.37,0.55
29.207,-0.19,-0.46,0.47,0.68
29.217,-0.21,-0.48,0.50,0.72
29.227,-0.26,-0.47,0.54,0.76
29.237,-0.34,-0.42,0.56,0.78
29.247,-0.49,-0.36,0.58,0.84
29.257,-0.70,-0.29,0.57,0.95
29.267,-0.95,-0.23,0.58,1.14
29.277,-1.14,-0.15,0.60,1.30
29.287,-1.34,-0.11,0.58,1.46
29.297,-1.45,-0.07,0.47,1.53
29.307,-1.51,-0.02,0.39,1.56
29.317,-1.38,-0.02,0.44,1.45
29.327,-1.13,-0.04,0.47,1.23
29.337,-0.90,-0.04,0.41,0.99
29.347,-0.73,-0.02,0.25,0.77
29.357,-0.67,0.05,0.04,0.68
29.367,-0.74,0.12,-0.13,0.76
29.377,-0.93,0.19,-0.40,1.03
29.387,-1.08,0.33,-0.52,1.24
29.397,-1.26,0.50,-0.53,1.46
29.407,-1.40,0.63,-0.48,1.60
29.417,-1.54,0.70,-0.33,1.73
29.427,-1.69,0.75,-0.20,1.86
29.437,-1.75,0.86,-0.11,1.95
29.447,-1.75,0.96,-0.13,2.00
29.457,-1.80,1.03,-0.11,2.08
29.467,-1.91,0.92,0.04,2.12
29.477,-1.87,0.68,0.18,2.00
29.487,-1.88,0.40,0.25,1.93
29.497,-1.91,0.17,0.41,1.96
29.507,-1.76,-0.05,0.70,1.89
29.517,-1.45,-0.23,0.95,1.74
29.527,-1.24,-0.33,1.00,1.62
29.537,-1.13,-0.36,0.92,1.50
29.547,-1.18,-0.37,0.84,1.49
29.557,-1.38,-0.41,0.56,1.55
29.567,-1.58,-0.50,0.45,1.72
29.577,-1.65,-0.57,0.57,1.84
29.587,-1.36,-0.59,0.72,1.65
29.597,-0.74,-0.43,0.68,1.09
29.607,-0.08,-0.15,0.79,0.80
29.617,0.99,-0.18,0.23,1.03
29.627,2.40,-0.14,-0.36,2.43
29.637,4.43,0.07,-1.17,4.58
29.647,6.71,0.50,-1.69,6.94
29.657,8.07,1.00,-2.03,8.38
29.667,7.58,1.32,-1.82,7.90
29.677,5.84,1.38,-1.59,6.21
29.687,3.66,1.37,-0.99,4.03
29.697,0.40,1.39,-0.32,1.48
29.707,-2.47,1.56,-0.09,2.93
29.717,-4.41,1.44,-0.28,4.64
29.727,-5.28,1.05,-0.76,5.44
29.737,-4.75,0.65,-1.16,4.93
29.747,-2.51,0.30,-1.61,3.00
29.757,0.39,-0.05,-1.78,1.82
29.767,2.70,-0.48,-1.71,3.24
29.777,4.43,-0.94,-1.55,4.79
29.787,5.49,-1.44,-1.12,5.78
29.797,6.37,-1.91,-0.71,6.69
29.808,6.83,-2.20,-0.55,7.19
29.817,5.95,-1.62,-0.15,6.17
29.827,3.39,-0.25,0.12,3.40
29.838,0.80,0.99,0.34,1.31
29.847,-1.09,1.50,0.49,1.92
29.857,-2.08,1.30,0.45,2.50
29.867,-2.27,0.61,0.33,2.37
29.877,-2.11,-0.31,0.18,2.14
29.887,-1.71,-1.04,-0.01,2.00
29.898,-1.12,-1.31,-0.16,1.74
29.908,-0.74,-1.16,-0.38,1.43
29.917,-0.37,-0.90,-0.68,1.19
29.927,0.05,-0.62,-1.03,1.21
29.937,0.30,-0.28,-1.34,1.40
29.948,0.46,0.07,-1.41,1.48
29.958,0.45,0.37,-1.26,1.39
29.968,0.21,0.52,-1.02,1.16
29.978,-0.05,0.48,-0.67,0.83
29.988,-0.17,0.30,-0.31,0.47
29.998,-0.32,0.04,-0.02,0.33
30.008,-0.60,-0.23,0.22,0.68
30.018,-0.80,-0.46,0.38,1.00
30.028,-0.92,-0.65,0.40,1.20
30.038,-0.86,-0.79,0.29,1.20
30.048,-0.63,-0.90,0.07,1.09
30.058,-0.45,-0.93,-0.11,1.04
30.068,-0.41,-0.89,-0.24,1.01
30.078,-0.22,-0.85,-0.28,0.92
30.088,0.05,-0.77,-0.17,0.79
30.098,0.19,-0.68,-0.02,0.70
30.108,0.19,-0.58,0.14,0.63
30.118,-0.02,-0.55,0.35,0.66
30.128,-0.31,-0.65,0.51,0.89
30.138,-0.62,-0.75,0.60,1.14
30.148,-0.85,-0.78,0.66,1.33
30.158,-0.93,-0.77,0.68,1.39
30.168,-0.93,-0.77,0.65,1.37
30.178,-0.79,-0.81,0.63,1.30
30.188,-0.56,-0.88,0.61,1.21
30.198,-0.35,-0.95,0.59,1.17
30.208,-0.16,-1.04,0.58,1.20
30.218,-0.08,-1.09,0.57,1.23
30.228,-0.10,-1.13,0.52,1.25
30.238,-0.20,-1.12,0.51,1.25
30.248,-0.23,-1.14,0.49,1.26
30.258,-0.28,-1.18,0.46,1.30
30.268,-0.33,-1.21,0.43,1.32
30.278,-0.38,-1.12,0.35,1.23
30.288,-0.39,-0.98,0.31,1.10
30.298,-0.31,-0.89,0.32,1.00
30.308,-0.11,-0.71,0.34,0.80
30.318,0.12,-0.49,0.40,0.65
30.328,0.33,-0.31,0.36,0.57
30.338,0.39,-0.22,0.14,0.47
30.348,0.51,-0.31,-0.12,0.61
30.358,0.77,-0.43,-0.49,1.00
30.368,1.08,-0.37,-0.73,1.35
30.378,1.24,-0.26,-0.78,1.49
30.388,1.23,-0.25,-0.80,1.49
30.398,1.13,-0.29,-0.75,1.39
30.408,1.29,-0.34,-0.83,1.57
30.418,1.80,-0.33,-1.06,2.11
30.428,2.42,-0.17,-1.27,2.74
30.438,2.79,0.13,-1.66,3.25
30.448,2.88,0.44,-2.11,3.60
30.458,2.65,0.80,-2.36,3.64
30.468,2.08,1.21,-2.33,3.35
30.478,1.12,1.56,-2.31,3.01
30.488,0.11,1.88,-2.19,2.89
30.498,-0.78,2.10,-1.89,2.93
30.508,-1.47,2.12,-1.40,2.94
30.518,-1.81,2.00,-0.99,2.88
30.528,-1.93,1.70,-0.83,2.70
30.538,-1.93,1.37,-0.61,2.44
30.548,-1.79,1.07,-0.31,2.11
30.558,-1.49,0.73,-0.18,1.67
30.568,-0.96,0.27,-0.19,1.01
30.578,-0.26,-0.14,-0.24,0.38
30.588,0.36,-0.33,-0.23,0.54
30.598,0.79,-0.18,-0.16,0.82
30.608,1.00,0.08,-0.06,1.01
30.618,1.08,0.37,-0.12,1.14
30.628,1.06,0.67,-0.17,1.27
30.638,0.91,0.92,-0.14,1.30
30.648,0.59,1.12,-0.16,1.28
30.658,0.13,1.19,-0.17,1.21
30.668,-0.35,1.15,-0.05,1.21
30.678,-0.86,0.95,0.06,1.29
30.688,-1.15,0.69,0.10,1.35
30.698,-1.31,0.38,0.07,1.37
30.708,-1.31,0.12,0.05,1.32
30.718,-1.17,-0.01,0.09,1.18
30.728,-0.84,-0.07,0.13,0.85
30.738,-0.41,0.01,0.18,0.45
30.748,0.00,0.16,0.24,0.29
30.758,0.34,0.29,0.23,0.50
30.768,0.45,0.45,0.17,0.65
30.778,0.36,0.59,0.18,0.71
30.788,0.14,0.68,0.18,0.71
30.798,-0.11,0.67,0.19,0.71
30.808,-0.30,0.60,0.17,0.69
30.818,-0.46,0.47,0.15,0.67
30.828,-0.58,0.33,0.12,0.68
30.838,-0.67,0.21,0.09,0.71
30.848,-0.72,0.14,0.03,0.73
30.858,-0.77,0.06,0.04,0.78
30.868,-0.71,0.03,0.05,0.71
30.878,-0.63,0.01,0.08,0.63
30.888,-0.51,-0.02,0.14,0.53
30.898,-0.44,-0.08,0.17,0.48
30.909,-0.41,-0.19,0.24,0.51
30.918,-0.41,-0.24,0.37,0.60
30.928,-0.50,-0.34,0.49,0.78
30.939,-0.61,-0.39,0.55,0.91
30.948,-0.71,-0.48,0.64,1.07
30.959,-0.74,-0.58,0.62,1.13
30.968,-0.70,-0.35,0.62,1.00
30.978,-0.76,-0.27,0.61,1.01
30.988,-0.76,-0.12,0.61,0.98
30.998,-0.93,-0.02,0.53,1.07
31.008,-0.93,0.12,0.54,1.09
31.018,-0.82,0.20,0.51,0.98
31.028,-0.68,0.33,0.38,0.85
31.038,-0.66,0.47,0.28,0.86
31.049,-0.57,0.49,0.28,0.80
31.059,-0.34,0.41,0.29,0.61
31.069,-0.22,0.18,0.24,0.37
31.079,-0.17,-0.01,0.25,0.30
31.089,-0.19,-0.15,0.29,0.38
31.099,-0.23,-0.24,0.33,0.47
31.108,-0.23,-0.26,0.37,0.51
31.119,-0.25,-0.21,0.41,0.53
31.129,-0.30,-0.09,0.46,0.55
31.139,-0.28,0.08,0.55,0.62
31.149,-0.22,0.18,0.62,0.68
31.159,-0.13,0.20,0.65,0.70
31.169,0.03,0.22,0.60,0.64
31.179,0.39,0.29,0.37,0.62
31.189,0.94,0.47,0.02,1.05
31.199,1.62,0.73,-0.16,1.78
31.209,2.19,0.90,-0.09,2.37
31.219,2.28,0.99,-0.28,2.50
31.229,1.79,1.26,-0.58,2.27
31.239,1.00,1.65,-0.63,2.03
31.249,0.32,1.85,-0.57,1.96
31.259,0.32,1.63,-0.60,1.77
31.269,0.84,1.09,-0.54,1.48
31.279,1.34,0.62,-0.17,1.49
31.289,1.33,0.32,0.02,1.37
31.299,0.66,0.04,0.30,0.73
31.309,-0.21,-0.28,0.63,0.72
31.319,-0.91,-0.53,0.62,1.22
31.329,-1.43,-0.72,0.36,1.64
31.339,-1.68,-0.71,-0.13,1.83
31.349,-1.71,-0.60,-0.70,1.94
31.359,-1.50,-0.47,-1.33,2.06
31.369,-0.92,-0.30,-1.92,2.15
31.379,-0.20,-0.07,-2.35,2.36
31.389,0.30,0.19,-2.65,2.67
31.399,0.26,0.48,-2.78,2.83
31.409,0.05,0.77,-2.70,2.80
31.419,-0.08,1.01,-2.43,2.64
31.429,-0.13,1.17,-2.07,2.39
31.439,0.01,1.30,-1.75,2.18
31.449,0.12,1.40,-1.44,2.01
31.459,0.26,1.37,-1.21,1.85
31.469,0.40,1.19,-1.09,1.66
31.479,0.59,0.88,-0.97,1.44
31.489,0.70,0.53,-0.86,1.23
31.499,0.73,0.15,-0.79,1.08
31.509,0.68,-0.22,-0.76,1.04
31.519,0.60,-0.54,-0.77,1.11
31.529,0.54,-0.76,-0.69,1.16
31.539,0.46,-0.83,-0.56,1.10
31.549,0.23,-0.83,-0.51,1.01
31.559,-0.12,-0.76,-0.54,0.94
31.569,-0.51,-0.65,-0.62,1.03
31.579,-0.82,-0.50,-0.70,1.19
31.589,-0.99,-0.34,-0.73,1.28
31.599,-0.98,-0.21,-0.77,1.26
31.609,-0.88,-0.12,-0.80,1.20
31.619,-0.77,-0.06,-0.84,1.14
31.629,-0.59,0.00,-0.87,1.05
31.639,-0.44,0.03,-0.92,1.02
31.649,-0.35,0.09,-0.92,0.99
31.659,-0.25,0.11,-0.93,0.97
31.669,-0.23,0.14,-0.91,0.95
31.679,-0.14,0.18,-0.86,0.89
31.689,-0.11,0.19,-0.79,0.81
31.699,-0.07,0.14,-0.69,0.70
31.709,-0.02,0.06,-0.55,0.55
31.719,0.05,0.00,-0.46,0.47
31.729,0.06,-0.08,-0.40,0.41
31.739,-0.03,-0.13,-0.36,0.38
31.749,-0.21,-0.10,-0.42,0.48
31.759,-0.48,-0.02,-0.46,0.66
31.769,-0.86,-0.02,-0.44,0.96
31.779,-1.32,-0.06,-0.47,1.40
31.789,-1.90,-0.15,-0.52,1.97
31.799,-2.33,-0.25,-0.41,2.38
31.809,-2.56,-0.37,-0.31,2.60
31.819,-2.65,-0.38,-0.22,2.69
31.829,-2.64,-0.23,-0.15,2.65
31.839,-2.64,-0.19,-0.11,2.65
31.849,-2.45,-0.23,-0.23,2.47
31.859,-1.94,-0.30,-0.46,2.02
31.869,-1.25,-0.51,-0.52,1.45
31.879,-0.58,-0.88,-0.34,1.10
31.889,-0.18,-1.15,-0.42,1.24
31.899,-0.20,-1.03,-0.66,1.24
31.909,-0.74,-0.64,-0.81,1.28
31.919,-1.46,-0.24,-0.81,1.69
31.929,-1.94,0.02,-0.77,2.09
31.939,-2.12,0.07,-0.51,2.18
31.949,-2.01,-0.24,-0.35,2.05
31.959,-1.83,-0.81,-0.33,2.03
31.969,-1.61,-1.25,-0.56,2.11
31.979,-1.56,-1.27,-0.97,2.23
31.989,-1.82,-0.96,-0.91,2.24
31.999,-2.20,-0.50,-0.69,2.36
32.009,-2.42,-0.17,-0.55,2.49
32.019,-2.21,-0.25,-0.50,2.28
32.029,-1.48,-0.72,-0.38,1.69
32.040,-0.66,-1.32,-0.35,1.51
32.049,-0.19,-1.65,-0.50,1.74
32.060,-0.07,-1.61,-0.69,1.75
32.070,-0.37,-1.21,-0.77,1.48
32.079,-0.94,-0.78,-0.70,1.41
32.089,-1.49,-0.52,-0.56,1.68
32.100,-1.73,-0.48,-0.47,1.86
32.110,-1.62,-0.51,-0.37,1.74
32.120,-1.55,-0.82,-0.46,1.82
32.129,-1.16,-1.02,-0.76,1.72
32.139,-0.46,-0.48,-0.69,0.96
32.150,-0.17,0.28,-0.54,0.64
32.160,0.17,1.07,-0.25,1.11
32.170,0.81,1.73,0.12,1.92
32.180,1.80,1.93,0.59,2.71
32.190,2.94,1.25,0.60,3.25
32.200,4.07,-0.03,0.54,4.10
32.210,4.74,-1.21,0.39,4.91
32.220,4.79,-1.56,-0.17,5.04
32.230,4.35,-0.82,-0.34,4.44
32.240,3.72,0.46,0.15,3.75
32.250,3.26,1.76,1.01,3.84
32.260,3.37,2.64,1.19,4.44
32.270,4.50,2.88,0.58,5.37
32.280,6.23,2.72,0.09,6.80
32.290,6.96,2.60,-0.18,7.43
32.300,5.96,2.30,-0.36,6.40
32.310,4.32,1.68,-0.26,4.65
32.320,2.57,0.74,-0.05,2.68
32.330,1.01,-0.36,-0.08,1.07
32.340,-0.00,-1.34,0.06,1.34
32.350,-0.74,-2.04,0.32,2.20
32.360,-1.20,-2.27,0.66,2.65
32.370,-1.35,-1.97,0.91,2.55
32.380,-1.14,-1.25,0.99,1.96
32.390,-0.68,-0.33,0.91,1.19
32.400,-0.24,0.43,0.74,0.89
32.410,0.17,0.91,0.39,1.01
32.420,0.39,1.21,-0.07,1.27
32.430,0.21,1.43,-0.54,1.54
32.440,-0.30,1.61,-0.92,1.87
32.450,-0.81,1.57,-1.16,2.11
32.460,-1.17,1.31,-1.34,2.21
32.470,-1.29,0.98,-1.39,2.14
32.480,-1.19,0.63,-1.37,1.92
32.490,-0.86,0.40,-1.22,1.55
32.500,-0.56,0.35,-0.92,1.13
32.510,-0.40,0.49,-0.62,0.89
32.520,-0.32,0.71,-0.39,0.87
32.530,-0.34,0.87,-0.18,0.95
32.540,-0.43,0.90,0.03,1.00
32.550,-0.49,0.77,0.23,0.94
32.560,-0.48,0.53,0.34,0.79
32.570,-0.45,0.28,0.42,0.67
32.580,-0.41,0.02,0.52,0.66
32.590,-0.39,-0.27,0.53,0.71
32.600,-0.37,-0.51,0.51,0.81
32.610,-0.33,-0.70,0.54,0.94
32.620,-0.30,-0.83,0.53,1.03
32.630,-0.26,-0.88,0.54,1.06
32.640,-0.23,-0.82,0.56,1.02
32.650,-0.22,-0.68,0.60,0.93
32.660,-0.21,-0.52,0.58,0.81
32.670,-0.23,-0.32,0.59,0.71
32.680,-0.34,-0.09,0.62,0.72
32.690,-0.54,0.10,0.61,0.82
32.700,-0.72,0.20,0.48,0.89
32.710,-0.82,0.21,0.39,0.93
32.720,-0.77,0.16,0.32,0.85
32.730,-0.60,0.08,0.19,0.64
32.740,-0.44,0.10,0.11,0.47
32.750,-0.38,0.20,0.04,0.43
32.760,-0.41,0.30,-0.05,0.51
32.770,-0.55,0.34,-0.12,0.65
32.780,-0.68,0.36,-0.24,0.80
32.790,-0.82,0.37,-0.35,0.96
32.800,-0.98,0.42,-0.42,1.15
32.810,-1.10,0.50,-0.42,1.28
32.820,-1.26,0.61,-0.42,1.46
32.830,-1.43,0.71,-0.41,1.65
32.840,-1.61,0.77,-0.40,1.83
32.850,-1.75,0.76,-0.38,1.94
32.860,-1.82,0.70,-0.33,1.97
32.870,-1.81,0.59,-0.32,1.93
32.880,-1.78,0.39,-0.38,1.86
32.890,-1.72,0.16,-0.52,1.80
32.900,-1.74,-0.06,-0.50,1.82
32.910,-1.88,-0.29,-0.54,1.98
32.920,-2.06,-0.46,-0.45,2.16
32.930,-2.16,-0.51,-0.13,2.22
32.940,-2.01,-0.40,0.25,2.07
32.950,-1.66,-0.28,0.48,1.74
32.960,-1.18,-0.23,0.30,1.24
32.970,-0.73,-0.10,0.13,0.75
32.980,-0.56,-0.06,-0.05,0.56
32.990,-0.69,-0.14,-0.30,0.76
33.000,-0.95,-0.23,-0.42,1.06
33.010,-1.35,-0.36,-0.44,1.47
33.020,-1.76,-0.50,-0.26,1.85
33.030,-2.15,-0.54,-0.04,2.22
33.040,-2.45,-0.39,0.18,2.49
33.050,-2.60,-0.09,0.32,2.62
33.060,-2.44,0.30,0.36,2.49
33.070,-2.07,0.76,0.26,2.22
33.081,-1.58,1.24,0.01,2.01
33.090,-1.05,1.60,-0.36,1.95
33.100,-0.85,1.70,-0.77,2.05
33.110,-1.03,1.35,-1.28,2.12
33.120,-1.23,0.94,-1.58,2.21
33.130,-1.24,0.66,-1.55,2.09
33.141,-0.93,0.15,-1.78,2.02
33.151,-0.01,-0.10,-1.81,1.82
33.160,1.70,0.06,-1.51,2.27
33.170,3.96,0.34,-0.85,4.06
33.181,5.85,0.65,-0.68,5.92
33.190,6.52,1.15,-0.80,6.67
33.201,5.66,1.49,-1.02,5.94
33.211,3.76,1.44,-1.41,4.27
33.221,1.87,1.37,-1.70,2.87
33.231,-0.07,1.27,-1.80,2.20
33.241,-1.12,0.99,-1.47,2.10
33.250,-0.13,0.40,-0.70,0.82
33.261,2.95,-0.69,-0.22,3.04
33.271,6.81,-1.96,0.23,7.09
33.281,10.42,-2.50,0.43,10.72
33.291,10.43,-1.85,0.29,10.60
33.301,6.39,-0.47,0.32,6.42
33.311,3.37,0.76,0.52,3.49
33.321,1.48,1.49,0.60,2.18
33.331,-0.92,1.88,0.41,2.14
33.341,-2.56,1.99,0.42,3.26
33.351,-3.34,1.65,0.61,3.77
33.361,-3.36,0.69,0.51,3.47
33.371,-2.71,-0.68,-0.02,2.79
33.381,-1.39,-1.80,-0.41,2.31
33.391,-0.33,-2.29,-0.56,2.38
33.401,0.37,-2.12,-0.60,2.24
33.411,0.89,-1.52,-0.63,1.87
33.421,1.23,-0.73,-0.66,1.58
33.431,1.24,0.01,-0.65,1.40
33.441,1.06,0.58,-0.62,1.36
33.451,0.56,0.94,-0.51,1.21
33.461,-0.13,0.99,-0.32,1.05
33.471,-0.54,0.70,-0.14,0.90
33.481,-0.82,0.28,0.06,0.87
33.491,-1.03,-0.11,0.31,1.08
33.501,-1.00,-0.45,0.47,1.19
33.511,-0.99,-0.68,0.55,1.32
33.521,-0.65,-0.86,0.60,1.23
33.531,-0.22,-1.02,0.64,1.23
33.541,-0.32,-1.05,0.53,1.23
33.551,-0.44,-1.00,0.42,1.18
33.561,-0.27,-1.00,0.34,1.09
33.571,0.02,-1.04,0.29,1.08
33.581,0.15,-1.10,0.31,1.15
33.591,0.22,-1.03,0.33,1.11
33.601,0.14,-0.89,0.33,0.96
33.611,-0.03,-0.65,0.32,0.73
33.621,-0.28,-0.45,0.25,0.58
33.631,-0.49,-0.35,0.22,0.64
33.641,-0.62,-0.28,0.12,0.69
33.651,-0.70,-0.21,0.04,0.73
33.661,-0.66,-0.20,0.00,0.68
33.671,-0.62,-0.14,-0.14,0.65
33.681,-0.57,0.00,-0.29,0.64
33.691,-0.55,0.14,-0.41,0.70
33.701,-0.54,0.19,-0.39,0.69
33.711,-0.49,0.14,-0.41,0.65
33.721,-0.45,0.05,-0.47,0.65
33.731,-0.53,-0.13,-0.56,0.78
33.741,-0.67,-0.22,-0.63,0.94
33.751,-0.81,-0.30,-0.63,1.06
33.761,-0.90,-0.39,-0.63,1.17
33.771,-1.06,-0.40,-0.64,1.30
33.781,-1.27,-0.39,-0.63,1.47
33.791,-1.45,-0.43,-0.66,1.65
33.801,-1.60,-0.49,-0.69,1.81
33.811,-1.64,-0.47,-0.67,1.84
33.821,-1.75,-0.45,-0.50,1.88
33.831,-1.82,-0.52,-0.44,1.95
33.841,-1.85,-0.53,-0.45,1.98
33.851,-1.85,-0.46,-0.34,1.94
33.861,-1.80,-0.48,-0.33,1.89
33.871,-1.62,-0.60,-0.36,1.77
33.881,-1.27,-0.78,-0.39,1.54
33.891,-0.97,-0.82,-0.34,1.32
33.901,-0.92,-0.79,-0.08,1.22
33.911,-1.27,-0.83,0.03,1.51
33.921,-1.79,-0.75,-0.07,1.94
33.931,-2.23,-0.60,-0.11,2.32
33.941,-2.41,-0.61,-0.11,2.48
33.951,-2.25,-0.67,-0.16,2.36
33.961,-1.99,-0.71,-0.12,2.11
33.971,-1.65,-0.70,-0.08,1.80
33.981,-1.36,-0.71,-0.03,1.53
33.991,-1.16,-0.91,0.31,1.50
34.001,-1.05,-1.44,0.48,1.84
34.011,-0.92,-1.90,0.47,2.16
34.021,-0.92,-2.07,0.69,2.37
34.031,-0.95,-2.19,1.04,2.61
34.041,-0.92,-2.34,1.12,2.76
34.051,-0.83,-2.45,1.00,2.78
34.061,-0.65,-2.31,0.93,2.58
34.071,-0.56,-2.04,0.70,2.23
34.081,-0.33,-1.58,0.18,1.62
34.091,-0.02,-0.85,-0.14,0.86
34.101,0.02,0.10,-0.31,0.33
34.111,0.18,1.22,-0.24,1.26
34.121,0.72,2.03,-0.25,2.17
34.131,1.44,2.36,-0.66,2.84
34.141,2.35,2.10,-1.01,3.31
34.151,3.76,1.43,-1.37,4.25
34.161,5.54,0.99,-1.86,5.92
34.171,6.49,1.09,-1.85,6.83
34.181,5.99,1.81,-0.98,6.33
34.192,5.19,2.89,0.58,5.96
34.202,4.64,3.62,2.06,6.24
34.211,4.24,2.96,1.43,5.36
34.221,4.71,1.81,0.29,5.05
34.232,4.94,1.05,-0.25,5.06
34.242,4.41,0.76,-0.14,4.48
34.251,3.20,0.61,0.06,3.26
34.262,1.85,0.38,0.21,1.90
34.272,0.58,-0.01,0.27,0.64
34.281,-0.38,-0.55,0.09,0.67
34.292,-1.08,-1.02,0.04,1.49
34.302,-1.54,-1.31,0.13,2.02
34.312,-1.77,-1.33,0.28,2.23
34.322,-1.62,-1.17,0.30,2.02
34.332,-1.14,-0.82,0.24,1.43
34.342,-0.63,-0.30,0.29,0.75
34.352,-0.34,0.28,0.40,0.59
34.362,-0.34,0.83,0.42,0.99
34.372,-0.39,1.25,0.28,1.34
34.382,-0.45,1.46,-0.06,1.52
34.392,-0.43,1.48,-0.44,1.61
34.402,-0.39,1.39,-0.79,1.64
34.412,-0.42,1.25,-1.04,1.68
34.422,-0.51,0.99,-1.17,1.61
34.432,-0.50,0.65,-1.24,1.48
34.442,-0.47,0.32,-1.11,1.25
34.452,-0.47,0.10,-0.95,1.07
34.462,-0.53,0.08,-0.69,0.88
34.472,-0.63,0.21,-0.42,0.79
34.482,-0.72,0.45,-0.11,0.86
34.492,-0.78,0.70,0.23,1.07
34.502,-0.83,0.83,0.47,1.26
34.512,-0.86,0.75,0.55,1.26
34.522,-0.81,0.49,0.57,1.10
34.532,-0.79,0.13,0.58,0.99
34.542,-0.79,-0.20,0.54,0.98
34.552,-0.82,-0.42,0.46,1.03
34.562,-0.82,-0.51,0.44,1.07
34.572,-0.79,-0.50,0.48,1.05
34.582,-0.74,-0.42,0.56,1.02
34.592,-0.70,-0.26,0.63,0.98
34.602,-0.67,-0.12,0.74,1.00
34.612,-0.71,-0.02,0.86,1.11
34.622,-0.82,0.00,0.98,1.27
34.632,-0.93,-0.02,1.02,1.38
34.642,-0.96,-0.04,1.04,1.42
34.652,-0.92,-0.02,1.00,1.36
34.662,-0.83,-0.01,0.96,1.26
34.672,-0.69,-0.01,1.04,1.25
34.682,-0.66,-0.11,1.12,1.31
34.692,-0.65,-0.27,1.09,1.30
34.702,-0.65,-0.34,1.02,1.25
34.712,-0.56,-0.31,1.07,1.25
34.722,-0.49,-0.27,1.15,1.28
34.732,-0.40,-0.28,1.18,1.28
34.742,-0.34,-0.32,1.31,1.39
34.752,-0.34,-0.32,1.47,1.54
34.762,-0.44,-0.40,1.55,1.66
34.772,-0.60,-0.55,1.54,1.74
34.782,-0.74,-0.68,1.52,1.82
34.792,-0.85,-0.78,1.47,1.87
34.802,-0.93,-0.74,1.44,1.87
34.812,-0.92,-0.57,1.43,1.79
34.822,-0.86,-0.32,1.41,1.69
34.832,-0.77,-0.02,1.43,1.62
34.842,-0.67,0.26,1.50,1.66
34.852,-0.67,0.41,1.60,1.78
34.862,-0.72,0.50,1.66,1.88
34.872,-0.84,0.48,1.66,1.92
34.882,-1.01,0.36,1.67,1.99
34.892,-1.29,0.28,1.70,2.15
34.902,-1.56,0.20,1.77,2.37
34.912,-1.66,0.16,1.79,2.45
34.922,-1.62,0.15,1.76,2.40
34.932,-1.33,0.13,1.11,1.74
34.942,-0.51,0.31,-0.15,0.62
34.952,1.08,1.11,-1.27,2.00
34.962,3.75,2.30,-1.43,4.63
34.972,6.69,3.09,-2.29,7.72
34.982,7.12,3.81,-4.41,9.20
34.992,5.93,4.72,-5.67,9.46
35.002,5.51,4.64,-5.89,9.31
35.012,5.55,2.73,-5.93,8.57
35.022,4.50,0.43,-5.86,7.41
35.032,3.43,-1.07,-4.90,6.08
35.042,2.01,-2.02,-2.85,4.03
35.052,0.47,-2.13,-1.59,2.70
35.062,-0.38,-1.29,-0.29,1.38
35.072,-0.90,0.27,0.16,0.96
35.082,-1.51,2.19,-0.29,2.67
35.092,-1.95,3.72,-1.07,4.33
35.102,-1.63,4.24,-1.77,4.88
35.112,-0.46,3.61,-2.07,4.19
35.122,0.88,2.17,-2.13,3.17
35.132,1.72,0.51,-1.81,2.55
35.142,1.81,-0.99,-1.48,2.54
35.152,1.45,-1.96,-1.34,2.79
35.162,0.93,-2.15,-1.35,2.70
35.172,0.23,-1.63,-1.34,2.12
35.182,-0.60,-0.70,-1.23,1.54
35.193,-1.85,0.08,-1.07,2.14
35.202,-3.12,0.67,-0.80,3.29
35.212,-3.97,1.05,-0.59,4.15
35.222,-3.90,1.19,-0.63,4.13
35.232,-2.29,0.99,-0.90,2.66
35.242,-0.54,0.55,-1.24,1.46
35.253,0.02,0.14,-1.43,1.44
35.262,0.69,-0.29,-1.52,1.69
35.272,0.89,-0.75,-1.45,1.85
35.282,1.10,-1.14,-1.30,2.05
35.292,1.24,-1.42,-1.07,2.17
35.303,0.96,-1.45,-0.81,1.92
35.313,0.41,-1.16,-0.54,1.35
35.323,-0.21,-0.80,-0.40,0.92
35.332,-0.71,-0.40,-0.36,0.89
35.343,-1.06,0.01,-0.28,1.09
35.353,-1.21,0.24,-0.13,1.25
35.363,-1.14,0.29,-0.05,1.18
35.373,-0.90,0.16,-0.05,0.92
35.383,-0.76,-0.21,-0.03,0.79
35.393,-0.67,-0.62,-0.03,0.91
35.403,-0.52,-0.89,-0.12,1.04
35.413,-0.42,-1.14,-0.15,1.22
35.423,-0.42,-1.37,-0.14,1.45
35.433,-0.45,-1.48,-0.13,1.55
35.443,-0.41,-1.40,-0.15,1.46
35.453,-0.28,-1.17,-0.17,1.21
35.463,-0.16,-0.85,-0.27,0.91
35.473,-0.14,-0.50,-0.43,0.68
35.483,-0.11,-0.15,-0.53,0.56
35.493,-0.08,0.18,-0.48,0.52
35.503,0.01,0.39,-0.37,0.54
35.513,-0.01,0.55,-0.24,0.60
35.523,-0.05,0.58,-0.13,0.60
35.533,-0.14,0.59,-0.03,0.60
35.543,-0.15,0.52,0.01,0.54
35.553,-0.01,0.39,-0.05,0.40
35.563,0.16,0.29,-0.10,0.34
35.573,0.36,0.19,-0.13,0.43
35.583,0.48,0.11,-0.16,0.52
35.593,0.48,0.05,-0.15,0.50
35.603,0.47,-0.03,-0.11,0.49
35.613,0.39,-0.08,-0.08,0.41
35.623,0.17,-0.13,0.02,0.22
35.633,-0.04,-0.16,0.09,0.19
35.643,-0.19,-0.22,0.19,0.35
35.653,-0.35,-0.49,0.15,0.62
35.663,-0.56,-0.87,0.11,1.04
35.673,-0.34,-0.63,0.61,0.94
35.683,-0.22,-0.72,0.16,0.77
35.693,-0.20,-0.36,0.12,0.42
35.703,0.17,0.14,-0.06,0.23
35.713,0.84,0.51,0.08,0.98
35.723,1.85,1.00,0.71,2.22
35.733,2.52,1.26,0.59,2.88
35.743,2.44,1.23,-0.24,2.74
35.753,1.53,1.22,-0.81,2.12
35.763,0.42,1.41,-1.00,1.78
35.773,0.62,1.36,-1.38,2.04
35.783,1.67,0.96,-2.11,2.86
35.793,2.06,0.68,-2.69,3.45
35.803,1.82,0.91,-2.66,3.35
35.813,1.24,1.45,-2.32,3.00
35.823,0.27,1.72,-1.83,2.53
35.833,-0.84,1.58,-1.20,2.15
35.843,-1.82,1.06,-0.70,2.22
35.853,-1.83,0.28,-0.21,1.86
35.863,-1.11,-0.29,0.18,1.16
35.873,-0.59,-0.47,0.57,0.95
35.883,-0.17,-0.21,0.86,0.90
35.893,0.40,0.40,0.90,1.07
35.903,0.68,1.01,0.74,1.43
35.913,0.61,1.46,0.49,1.66
35.923,0.41,1.64,0.29,1.71
35.933,0.09,1.52,0.13,1.53
35.943,-0.32,1.34,-0.14,1.39
35.953,-0.71,1.20,-0.43,1.46
35.963,-0.91,1.12,-0.61,1.57
35.973,-1.01,1.07,-0.60,1.59
35.983,-1.10,1.04,-0.54,1.61
35.993,-1.18,1.06,-0.43,1.64
36.003,-1.15,1.09,-0.39,1.63
36.013,-1.11,1.09,-0.33,1.59
36.023,-1.08,1.08,-0.25,1.55
36.033,-1.00,1.04,-0.21,1.46
36.043,-0.91,0.94,-0.16,1.32
36.053,-0.80,0.86,-0.11,1.18
36.063,-0.60,0.76,-0.13,0.98
36.073,-0.43,0.72,-0.11,0.85
36.083,-0.19,0.76,-0.14,0.79
36.093,0.05,0.81,-0.11,0.82
36.103,0.21,0.88,-0.02,0.90
36.113,0.25,0.87,-0.00,0.90
36.123,0.18,0.81,-0.12,0.83
36.133,0.13,0.75,-0.19,0.79
36.143,0.01,0.74,-0.18,0.76
36.153,-0.15,0.75,-0.16,0.78
36.163,-0.22,0.77,-0.16,0.82
36.173,-0.30,0.81,-0.16,0.88
36.183,-0.44,0.82,-0.14,0.94
36.193,-0.55,0.78,-0.06,0.95
36.205,-0.67,0.72,-0.01,0.98
36.213,-0.93,0.82,0.12,1.24
36.223,-0.93,0.67,-0.01,1.15
36.233,-0.47,0.39,0.25,0.66
36.243,-0.62,0.42,0.32,0.82
36.253,-0.84,0.50,0.37,1.05
36.263,-0.73,0.52,0.34,0.96
36.273,-0.61,0.48,0.40,0.88
36.283,-0.60,0.51,0.43,0.89
36.293,-0.63,0.49,0.43,0.91
36.304,-0.58,0.41,0.45,0.84
36.313,-0.48,0.34,0.47,0.75
36.323,-0.49,0.36,0.51,0.79
36.334,-0.56,0.42,0.57,0.90
36.344,-0.56,0.47,0.61,0.95
