time,ax,ay,az,atotal
0.000,-0.09,0.07,-0.04,0.12
0.010,-0.16,0.05,-0.02,0.17
0.020,-0.23,0.03,-0.01,0.23
0.030,-0.19,0.08,-0.03,0.21
0.040,-0.15,0.15,0.01,0.21
0.050,-0.11,0.17,0.00,0.20
0.060,-0.09,0.12,-0.03,0.15
0.070,-0.09,0.09,-0.03,0.13
0.080,-0.09,0.02,-0.03,0.10
0.090,-0.09,-0.00,-0.03,0.09
0.100,-0.11,0.04,-0.00,0.12
0.110,-0.11,0.02,-0.00,0.11
0.120,-0.11,-0.05,0.01,0.12
0.130,-0.14,-0.05,0.03,0.15
0.140,-0.16,-0.02,0.01,0.16
0.150,-0.20,0.03,0.01,0.20
0.160,-0.21,0.03,0.00,0.21
0.170,-0.18,0.05,0.02,0.19
0.180,-0.13,0.02,0.00,0.13
0.190,-0.14,0.03,0.01,0.14
0.200,-0.18,0.08,0.04,0.20
0.210,-0.17,0.08,0.06,0.19
0.220,-0.12,0.06,0.04,0.14
0.230,-0.10,0.02,0.03,0.11
0.240,-0.08,-0.02,0.03,0.09
0.250,-0.13,0.02,0.01,0.13
0.260,-0.15,0.06,0.01,0.16
0.270,-0.20,0.05,0.01,0.20
0.280,-0.16,0.04,-0.01,0.17
0.290,-0.12,0.02,0.01,0.12
0.300,-0.08,0.00,0.02,0.08
0.310,-0.09,-0.00,0.03,0.09
0.320,-0.07,-0.01,0.03,0.07
0.330,-0.02,0.01,0.03,0.04
0.340,-0.01,-0.03,0.05,0.06
0.350,-0.03,-0.06,0.05,0.08
0.360,-0.07,-0.08,0.04,0.11
0.370,-0.10,-0.09,0.03,0.14
0.380,-0.11,-0.09,0.02,0.14
0.390,-0.10,-0.08,0.02,0.13
0.400,-0.08,-0.09,-0.01,0.12
0.410,-0.07,-0.06,-0.02,0.10
0.420,-0.12,-0.06,-0.02,0.13
0.430,-0.13,-0.05,-0.05,0.15
0.440,-0.09,-0.04,-0.04,0.11
0.450,-0.08,-0.07,-0.04,0.11
0.460,-0.10,-0.04,-0.04,0.11
0.470,-0.11,-0.04,-0.06,0.13
0.480,-0.10,0.00,-0.09,0.14
0.490,-0.11,0.02,-0.08,0.14
0.500,-0.12,0.03,-0.10,0.16
0.510,-0.13,0.08,-0.11,0.19
0.521,-0.14,0.09,-0.19,0.25
0.530,-0.09,0.17,-0.11,0.22
0.541,-0.11,0.11,-0.10,0.19
0.550,-0.09,0.05,-0.10,0.15
0.561,-0.07,0.06,-0.09,0.13
0.570,-0.10,0.05,-0.08,0.14
0.581,-0.06,0.04,-0.04,0.08
0.591,-0.08,0.04,-0.00,0.09
0.601,-0.08,0.01,0.00,0.08
0.610,-0.01,-0.08,0.02,0.09
0.621,-0.03,-0.15,-0.00,0.15
0.631,-0.04,-0.12,0.03,0.13
0.641,-0.10,-0.03,0.01,0.10
0.651,-0.13,0.03,-0.00,0.13
0.661,-0.20,0.03,0.01,0.20
0.671,-0.14,0.02,0.04,0.15
0.681,-0.11,-0.05,0.09,0.15
0.691,-0.18,-0.11,0.15,0.26
0.701,-0.18,-0.14,0.19,0.30
0.711,-0.17,-0.15,0.21,0.31
0.721,-0.16,-0.14,0.21,0.31
0.731,-0.14,-0.13,0.20,0.28
0.741,-0.11,-0.10,0.16,0.22
0.751,-0.07,-0.06,0.12,0.15
0.761,-0.07,-0.04,0.07,0.11
0.771,-0.11,-0.00,0.00,0.11
0.781,-0.19,0.01,-0.06,0.20
0.791,-0.19,-0.01,-0.08,0.21
0.801,-0.20,-0.04,-0.11,0.23
0.811,-0.17,-0.08,-0.19,0.27
0.821,-0.11,-0.09,-0.28,0.31
0.831,-0.12,-0.04,-0.37,0.39
0.841,-0.22,0.01,-0.49,0.54
0.851,-0.47,0.10,-0.58,0.76
0.861,-0.77,0.17,-0.65,1.02
0.871,-1.07,0.19,-0.59,1.24
0.881,-1.28,0.14,-0.54,1.39
0.891,-1.33,0.05,-0.47,1.41
0.901,-1.19,-0.01,-0.35,1.25
0.911,-0.93,-0.13,-0.26,0.98
0.921,-0.60,-0.28,-0.16,0.68
0.931,-0.33,-0.43,-0.08,0.55
0.941,-0.08,-0.50,0.02,0.51
0.951,0.13,-0.56,0.12,0.59
0.961,0.38,-0.68,0.21,0.81
0.971,0.79,-0.91,0.16,1.22
0.981,1.16,-1.25,0.09,1.71
0.991,0.64,-0.49,-0.03,0.81
1.001,0.54,0.13,-0.00,0.56
1.011,0.42,0.23,0.03,0.48
1.021,0.41,0.21,0.03,0.46
1.031,0.23,0.15,0.12,0.30
1.041,0.05,0.13,0.15,0.20
1.051,-0.21,0.13,0.25,0.35
1.061,-0.41,0.13,0.45,0.62
1.071,-0.48,0.08,0.62,0.79
1.081,-0.50,-0.03,0.74,0.90
1.091,-0.49,-0.17,0.84,0.99
1.101,-0.42,-0.27,0.91,1.04
1.111,-0.25,-0.34,1.00,1.09
1.121,-0.07,-0.49,1.14,1.24
1.131,0.09,-0.70,1.20,1.39
1.141,0.31,-0.86,1.15,1.47
1.151,0.50,-0.88,1.04,1.45
1.161,0.52,-0.72,0.84,1.22
1.171,0.38,-0.53,0.68,0.94
1.181,0.08,-0.33,0.52,0.62
1.191,-0.25,-0.12,0.45,0.53
1.201,-0.51,0.02,0.42,0.66
1.211,-0.71,0.09,0.36,0.80
1.221,-0.80,0.05,0.36,0.88
1.231,-0.84,0.07,0.34,0.91
1.241,-0.94,0.11,0.42,1.03
1.251,-1.03,-0.14,0.49,1.15
1.261,-0.97,-0.36,0.51,1.15
1.271,-0.92,-0.49,0.51,1.16
1.281,-0.88,-0.61,0.55,1.20
1.291,-0.78,-0.77,0.58,1.24
1.301,-0.67,-0.85,0.62,1.25
1.311,-0.64,-0.91,0.66,1.29
1.321,-0.71,-0.90,0.67,1.33
1.331,-0.86,-0.82,0.70,1.38
1.341,-0.98,-0.73,0.66,1.39
1.351,-1.01,-0.61,0.53,1.30
1.361,-1.03,-0.45,0.48,1.22
1.371,-1.08,-0.31,0.47,1.22
1.381,-1.23,-0.27,0.43,1.33
1.391,-1.36,-0.27,0.36,1.44
1.401,-1.42,-0.29,0.21,1.47
1.411,-1.51,-0.31,0.03,1.54
1.421,-1.65,-0.30,-0.07,1.67
1.431,-1.88,-0.32,-0.19,1.91
1.441,-2.07,-0.32,-0.45,2.14
1.451,-2.08,-0.12,-0.50,2.14
1.461,-1.92,0.21,-0.30,1.96
1.471,-1.64,0.54,-0.09,1.73
1.481,-1.47,0.79,0.02,1.67
1.491,-1.37,1.10,0.09,1.76
1.501,-1.30,1.33,0.16,1.87
1.511,-1.34,1.40,0.25,1.95
1.521,-1.38,1.19,0.20,1.83
1.531,-1.48,0.87,0.11,1.72
1.541,-1.54,0.54,0.06,1.64
1.551,-1.58,0.29,0.11,1.61
1.561,-1.61,0.11,0.22,1.63
1.572,-1.56,-0.11,0.31,1.59
1.581,-1.55,-0.22,0.37,1.61
1.591,-1.56,-0.23,0.36,1.61
1.602,-1.79,-0.17,0.48,1.86
1.611,-2.02,-0.19,0.61,2.12
1.622,-2.11,-0.17,0.70,2.23
1.631,-2.07,-0.01,0.86,2.24
1.642,-2.00,0.10,1.06,2.27
1.652,-2.01,-0.00,1.27,2.38
1.662,-1.95,-0.26,1.33,2.37
1.671,-1.77,-0.58,1.28,2.26
1.682,-1.27,-0.89,0.97,1.83
1.692,-0.31,-0.70,0.84,1.13
1.701,0.79,-0.53,0.45,1.05
1.712,2.49,-0.27,0.10,2.51
1.722,4.15,0.32,-0.50,4.19
1.732,5.36,1.01,-1.10,5.57
1.742,6.01,1.59,-1.90,6.50
1.752,5.82,2.32,-2.37,6.70
1.762,4.82,3.14,-2.25,6.18
1.772,3.03,3.81,-1.70,5.15
1.782,1.03,3.95,-1.16,4.24
1.792,-0.31,3.50,-0.87,3.62
1.802,-0.72,2.48,-0.44,2.62
1.812,0.19,1.21,-0.35,1.27
1.822,1.59,0.05,-0.42,1.65
1.832,3.14,-1.03,-0.77,3.39
1.842,4.51,-1.79,-1.21,5.01
1.851,5.10,-2.16,-1.42,5.72
1.862,4.03,-2.04,-1.18,4.67
1.872,1.69,-1.57,-0.68,2.41
1.882,-0.57,-1.09,-0.11,1.23
1.892,-2.16,-0.96,0.48,2.41
1.902,-2.79,-1.16,0.70,3.10
1.912,-2.21,-1.37,0.62,2.67
1.922,-0.64,-1.34,0.30,1.52
1.932,1.00,-1.11,-0.11,1.50
1.942,2.40,-0.95,-0.46,2.62
1.952,3.30,-0.74,-0.65,3.44
1.962,3.31,-0.34,-0.73,3.40
1.972,2.57,0.26,-0.76,2.69
1.982,1.65,0.83,-0.84,2.03
1.992,1.02,1.19,-0.87,1.79
2.002,0.57,1.20,-0.93,1.62
2.012,0.16,0.94,-0.84,1.27
2.022,-0.18,0.69,-0.67,0.97
2.032,-0.27,0.48,-0.57,0.79
2.042,-0.15,0.23,-0.55,0.61
2.052,0.32,0.02,-0.44,0.54
2.062,0.80,-0.23,-0.29,0.88
2.072,1.13,-0.46,-0.21,1.24
2.082,1.09,-0.63,-0.20,1.27
2.092,0.70,-0.72,-0.23,1.03
2.102,0.25,-0.76,-0.24,0.83
2.112,-0.09,-0.78,-0.28,0.84
2.122,-0.34,-0.79,-0.31,0.91
2.132,-0.45,-0.75,-0.32,0.93
2.142,-0.44,-0.62,-0.34,0.83
2.152,-0.39,-0.44,-0.34,0.67
2.162,-0.28,-0.19,-0.30,0.45
2.172,-0.23,0.05,-0.23,0.33
2.182,-0.29,0.23,-0.15,0.40
2.192,-0.51,0.34,-0.11,0.62
2.202,-0.82,0.31,-0.09,0.88
2.212,-1.07,0.21,-0.09,1.09
2.222,-1.16,0.08,-0.02,1.16
2.232,-1.11,-0.05,0.23,1.13
2.242,-0.96,-0.13,0.41,1.05
2.252,-0.82,-0.19,0.54,1.00
2.262,-0.72,-0.30,0.50,0.93
2.272,-0.61,-0.46,0.37,0.85
2.282,-0.46,-0.65,0.12,0.80
2.292,-0.34,-0.82,-0.07,0.90
2.302,-0.37,-0.95,-0.17,1.04
2.312,-0.62,-0.90,-0.18,1.11
2.322,-1.17,-0.79,-0.10,1.42
2.332,-1.77,-0.76,-0.04,1.93
2.342,-2.30,-0.80,-0.08,2.44
2.352,-2.61,-0.86,0.03,2.75
2.362,-2.57,-1.08,0.14,2.79
2.372,-2.30,-1.33,0.17,2.66
2.382,-1.95,-1.61,0.15,2.54
2.392,-1.57,-1.79,0.06,2.38
2.402,-1.39,-1.83,-0.26,2.31
2.412,-1.49,-1.55,-0.75,2.28
2.422,-1.77,-0.95,-1.06,2.27
2.432,-1.98,-0.36,-1.31,2.40
2.442,-2.13,0.22,-1.50,2.61
2.452,-2.32,0.53,-1.50,2.81
2.462,-2.27,0.31,-1.36,2.66
2.472,-1.83,-0.25,-1.07,2.13
2.482,-1.09,-0.93,-0.74,1.61
2.492,-0.33,-1.58,-0.55,1.70
2.502,0.13,-1.91,-0.60,2.01
2.512,0.23,-1.85,-0.87,2.05
2.522,-0.10,-1.34,-1.28,1.86
2.532,-0.74,-0.60,-1.68,1.93
2.542,-1.36,0.10,-1.60,2.10
2.552,-1.76,0.43,-1.27,2.21
2.562,-1.77,0.57,-0.91,2.07
2.572,-1.62,0.34,-0.52,1.73
2.582,-1.25,-0.24,-0.29,1.31
2.592,-0.77,-0.90,-0.37,1.24
2.603,-0.51,-1.22,-0.64,1.47
2.612,-0.57,-1.04,-1.00,1.55
2.623,-0.90,-0.63,-1.13,1.57
2.632,-1.05,-0.48,-1.25,1.70
2.643,-0.32,0.13,-1.29,1.34
2.652,0.56,0.89,-1.06,1.49
2.662,1.26,1.41,-0.05,1.89
2.673,2.02,1.23,0.95,2.54
2.682,3.20,0.31,1.30,3.47
2.692,4.41,-1.02,1.42,4.75
2.702,5.17,-2.41,1.26,5.84
2.712,5.63,-2.67,0.82,6.28
2.723,5.19,-1.46,0.40,5.41
2.732,4.19,0.34,0.13,4.21
2.742,3.10,2.16,-0.00,3.78
2.753,2.32,3.43,0.10,4.14
2.762,2.38,3.87,0.25,4.55
2.773,2.80,3.62,0.24,4.58
2.783,3.08,3.31,0.39,4.54
2.792,2.69,2.96,0.58,4.04
2.803,2.03,2.42,0.61,3.22
2.812,1.43,1.67,0.67,2.30
2.823,0.92,0.81,0.86,1.50
2.833,0.55,-0.12,1.02,1.17
2.843,0.37,-0.80,1.12,1.42
2.853,0.29,-1.07,1.12,1.58
2.863,0.14,-0.99,0.97,1.39
2.873,-0.00,-0.59,0.79,0.98
2.883,-0.09,-0.07,0.57,0.58
2.893,-0.08,0.53,0.22,0.58
2.903,-0.04,1.25,-0.01,1.25
2.913,-0.12,1.88,-0.19,1.89
2.923,-0.26,2.31,-0.44,2.37
2.933,-0.43,2.39,-0.55,2.49
2.943,-0.59,2.04,-0.62,2.21
2.953,-0.65,1.45,-0.65,1.71
2.963,-0.56,0.82,-0.59,1.15
2.973,-0.49,0.29,-0.44,0.72
2.983,-0.48,-0.12,-0.27,0.56
2.993,-0.54,-0.34,-0.09,0.64
3.003,-0.59,-0.35,0.07,0.69
3.013,-0.71,-0.19,0.18,0.76
3.023,-0.89,0.08,0.25,0.92
3.033,-1.01,0.39,0.27,1.11
3.043,-1.12,0.64,0.26,1.31
3.053,-1.21,0.77,0.24,1.45
3.063,-1.23,0.79,0.16,1.47
3.073,-1.26,0.65,0.07,1.42
3.083,-1.30,0.40,-0.00,1.36
3.093,-1.32,0.10,-0.08,1.33
3.103,-1.29,-0.18,-0.16,1.31
3.113,-1.22,-0.39,-0.22,1.30
3.123,-1.10,-0.42,-0.18,1.19
3.133,-0.97,-0.27,-0.08,1.01
3.143,-0.87,-0.09,0.02,0.88
3.153,-0.77,0.13,0.24,0.82
3.163,-0.56,0.32,0.50,0.81
3.173,-0.27,0.42,0.66,0.83
3.183,-0.02,0.42,0.84,0.94
3.193,0.15,0.30,1.01,1.07
3.203,0.25,0.06,1.11,1.14
3.213,0.27,-0.24,1.09,1.15
3.223,0.23,-0.50,1.04,1.17
3.233,0.12,-0.73,0.97,1.22
3.243,-0.02,-0.87,0.87,1.23
3.253,-0.22,-0.90,0.85,1.26
3.263,-0.42,-0.80,0.82,1.22
3.273,-0.68,-0.60,0.81,1.21
3.283,-0.99,-0.37,0.72,1.28
3.293,-1.33,-0.20,0.66,1.50
3.303,-1.65,-0.07,0.57,1.75
3.313,-1.83,0.04,0.53,1.91
3.323,-1.95,0.14,0.69,2.07
3.333,-2.02,0.13,0.86,2.20
3.343,-1.88,0.14,0.85,2.07
3.353,-1.70,0.27,0.75,1.88
3.363,-1.58,0.39,0.54,1.71
3.373,-1.40,0.45,0.23,1.49
3.383,-1.17,0.48,-0.02,1.26
3.393,-1.13,0.42,-0.19,1.22
3.403,-1.16,0.26,-0.45,1.27
3.413,-1.18,0.14,-0.80,1.43
3.423,-1.16,0.23,-0.86,1.46
3.433,-1.07,0.43,-0.73,1.36
3.443,-0.95,0.63,-0.45,1.23
3.453,-0.83,0.77,-0.20,1.15
3.463,-0.69,0.93,-0.10,1.16
3.473,-0.61,1.02,-0.12,1.20
3.483,-0.69,0.95,-0.08,1.17
3.493,-0.89,0.69,0.01,1.13
3.503,-1.04,0.44,0.01,1.13
3.513,-1.19,0.37,0.03,1.25
3.523,-1.40,0.33,0.00,1.44
3.533,-1.56,0.36,-0.14,1.61
3.543,-1.74,0.48,-0.36,1.84
3.553,-1.94,0.58,-0.71,2.15
3.563,-2.12,0.73,-1.04,2.47
3.573,-2.38,0.84,-1.12,2.76
3.583,-2.76,0.67,-0.93,2.99
3.593,-3.03,0.42,-0.62,3.12
3.604,-2.75,0.37,-0.40,2.80
3.613,-1.96,0.65,-0.45,2.11
3.623,-1.05,1.29,-0.36,1.70
3.633,-0.37,1.27,-0.59,1.45
3.643,0.98,0.83,-0.64,1.44
3.653,2.17,0.51,-1.02,2.45
3.663,3.23,0.24,-1.06,3.40
3.673,4.06,0.36,-0.74,4.14
3.683,4.02,0.83,-0.53,4.14
3.693,3.72,1.33,-0.22,3.96
3.704,3.39,1.67,-0.07,3.78
3.713,2.22,1.92,-0.12,2.94
3.723,0.53,2.07,-0.38,2.17
3.733,-0.21,1.63,-0.49,1.71
3.743,1.87,0.37,-0.54,1.98
3.753,6.55,-1.32,-1.15,6.78
3.764,11.99,-2.34,-0.34,12.22
3.773,12.70,-1.99,0.08,12.86
3.783,6.96,-0.47,0.65,7.01
3.793,0.08,0.62,1.46,1.58
3.804,-3.67,0.28,1.93,4.16
3.813,-4.90,-0.45,2.06,5.33
3.823,-4.07,-1.07,2.05,4.68
3.833,-2.14,-1.71,1.88,3.32
3.844,-0.44,-2.22,1.60,2.77
3.853,0.99,-2.40,1.11,2.83
3.864,2.17,-2.26,0.49,3.17
3.874,2.76,-1.63,-0.17,3.21
3.884,2.12,-0.81,-0.67,2.36
3.894,0.88,-0.14,-0.98,1.33
3.904,0.06,0.36,-1.24,1.29
3.914,-0.50,0.66,-1.35,1.58
3.924,-0.80,0.85,-1.21,1.68
3.934,-0.84,0.84,-0.91,1.50
3.944,-0.75,0.61,-0.62,1.15
3.954,-0.44,0.29,-0.42,0.67
3.964,0.03,0.04,-0.27,0.28
3.974,0.41,-0.17,-0.18,0.48
3.984,0.46,-0.46,-0.11,0.66
3.993,0.19,-0.77,-0.08,0.79
4.004,-0.22,-1.02,-0.01,1.04
4.014,-0.50,-1.25,0.05,1.34
4.024,-0.61,-1.45,0.11,1.57
4.034,-0.56,-1.53,0.14,1.64
4.044,-0.38,-1.44,0.18,1.50
4.054,-0.20,-1.20,0.15,1.23
4.064,-0.17,-0.86,0.09,0.88
4.074,-0.27,-0.48,0.03,0.56
4.084,-0.42,-0.12,-0.07,0.45
4.094,-0.62,0.13,-0.17,0.65
4.104,-0.81,0.23,-0.27,0.89
4.114,-0.89,0.24,-0.41,1.01
4.124,-0.91,0.21,-0.46,1.04
4.134,-0.87,0.15,-0.52,1.03
4.144,-0.80,0.05,-0.62,1.01
4.154,-0.68,-0.08,-0.68,0.96
4.164,-0.56,-0.27,-0.82,1.03
4.174,-0.52,-0.33,-0.95,1.14
4.184,-0.64,-0.36,-0.88,1.14
4.194,-0.84,-0.48,-0.82,1.27
4.204,-1.02,-0.52,-0.75,1.37
4.214,-1.20,-0.57,-0.65,1.48
4.224,-1.38,-0.66,-0.47,1.60
4.234,-1.59,-0.79,-0.32,1.80
4.244,-1.78,-0.87,-0.34,2.01
4.254,-2.14,-0.84,-0.47,2.35
4.264,-2.64,-0.72,-0.60,2.80
4.274,-3.04,-0.55,-0.75,3.17
4.284,-3.07,-0.30,-0.90,3.21
4.294,-2.47,-0.03,-0.95,2.64
4.304,-1.64,0.12,-0.85,1.85
4.314,-1.00,0.18,-0.68,1.22
4.324,-0.61,0.06,-0.48,0.78
4.334,-0.53,-0.27,-0.33,0.68
4.344,-0.50,-0.52,-0.38,0.81
4.354,-0.39,-0.56,-0.55,0.88
4.364,-0.40,-0.39,-0.80,0.97
4.374,-0.53,0.04,-1.05,1.17
4.384,-0.73,0.54,-1.29,1.58
4.394,-0.93,0.97,-1.62,2.11
4.404,-1.14,1.28,-1.50,2.28
4.414,-1.12,1.07,-1.14,1.92
4.424,-0.93,0.44,-1.08,1.49
4.434,-0.69,-0.19,-1.07,1.28
4.444,-0.51,-0.72,-1.00,1.33
4.454,-0.35,-1.08,-0.92,1.46
4.464,-0.33,-1.24,-0.86,1.55
4.474,-0.43,-1.38,-0.74,1.62
4.484,-0.53,-1.60,-0.51,1.76
4.494,-0.46,-1.95,-0.23,2.02
4.504,-0.35,-2.42,-0.01,2.44
4.514,-0.16,-2.77,0.39,2.80
4.524,0.08,-2.85,0.89,2.99
4.534,0.05,-2.82,1.19,3.06
4.544,0.17,-2.83,1.36,3.14
4.554,0.62,-2.58,1.33,2.96
4.564,0.91,-2.12,0.92,2.49
4.574,1.06,-1.21,0.53,1.69
4.584,1.23,0.02,0.20,1.24
4.594,1.61,1.42,0.26,2.16
4.604,2.34,2.59,0.70,3.55
4.614,3.49,2.97,1.13,4.71
4.624,4.41,2.16,1.18,5.05
4.634,4.45,0.83,1.02,4.64
4.644,3.63,0.07,0.88,3.74
4.654,2.17,0.26,0.97,2.39
4.664,0.76,0.86,1.40,1.81
4.674,0.07,1.36,1.90,2.34
4.684,0.71,1.38,1.93,2.48
4.694,3.12,0.64,1.25,3.42
4.704,5.84,-0.32,0.49,5.87
4.714,6.76,-0.68,-0.08,6.79
4.724,5.58,-0.14,-0.23,5.58
4.734,3.07,0.69,-0.21,3.15
4.744,0.73,1.12,-0.37,1.38
4.754,-0.90,1.10,-0.67,1.57
4.764,-1.71,1.03,-0.79,2.15
4.774,-1.93,1.19,-0.72,2.38
4.784,-1.95,1.59,-0.49,2.56
4.794,-1.76,1.99,-0.16,2.66
4.804,-1.23,1.90,0.23,2.27
4.814,-0.40,1.37,0.50,1.51
4.824,0.33,0.74,0.57,1.00
4.834,0.66,0.44,0.43,0.90
4.844,0.47,0.46,0.10,0.67
4.854,0.01,0.47,-0.31,0.57
4.864,-0.33,0.50,-0.68,0.91
4.874,-0.50,0.59,-1.05,1.31
4.885,-0.61,0.74,-1.29,1.61
4.894,-0.69,0.87,-1.38,1.77
4.905,-0.72,0.96,-1.29,1.76
4.914,-0.59,1.00,-1.14,1.63
4.925,-0.36,0.95,-0.94,1.39
4.935,-0.24,0.89,-0.69,1.15
4.945,-0.24,0.83,-0.41,0.95
4.955,-0.26,0.74,-0.13,0.80
4.965,-0.21,0.65,0.07,0.69
4.974,-0.17,0.55,0.28,0.64
4.985,-0.21,0.38,0.43,0.61
4.994,-0.32,0.16,0.55,0.66
5.005,-0.49,-0.07,0.67,0.83
5.015,-0.69,-0.26,0.72,1.03
5.025,-0.86,-0.42,0.77,1.22
5.035,-1.01,-0.52,0.77,1.37
5.045,-1.05,-0.53,0.71,1.37
5.055,-1.01,-0.54,0.69,1.34
5.065,-0.95,-0.59,0.76,1.36
5.075,-0.84,-0.60,0.97,1.42
5.085,-0.64,-0.59,1.18,1.47
5.095,-0.36,-0.55,1.40,1.54
5.105,-0.13,-0.56,1.54,1.64
5.115,-0.07,-0.58,1.56,1.67
5.125,-0.24,-0.60,1.53,1.66
5.135,-0.62,-0.66,1.39,1.66
5.145,-1.03,-0.76,1.22,1.77
5.155,-1.39,-0.91,0.93,1.91
5.165,-1.63,-1.00,0.63,2.02
5.175,-1.67,-0.95,0.43,1.97
5.185,-1.61,-0.71,0.26,1.78
5.195,-1.41,-0.38,0.19,1.47
5.205,-1.16,0.06,0.07,1.17
5.215,-1.04,0.49,0.03,1.15
5.225,-1.11,0.76,-0.13,1.35
5.235,-1.39,0.96,-0.32,1.72
5.245,-1.77,1.02,-0.56,2.12
5.255,-2.13,1.04,-0.79,2.50
5.265,-2.47,1.04,-0.92,2.84
5.275,-2.76,0.92,-1.00,3.07
5.285,-2.89,0.70,-1.09,3.17
5.295,-2.85,0.46,-1.08,3.09
5.305,-2.62,0.23,-1.05,2.84
5.315,-2.39,0.08,-0.84,2.53
5.325,-2.22,0.01,-0.59,2.30
5.335,-2.12,0.02,-0.25,2.14
5.345,-2.25,-0.02,0.13,2.25
5.355,-2.39,-0.16,0.40,2.43
5.365,-2.54,-0.32,0.46,2.60
5.375,-2.56,-0.42,0.46,2.64
5.385,-2.58,-0.52,0.46,2.67
5.395,-2.59,-0.66,0.58,2.73
5.405,-2.46,-0.65,0.70,2.63
5.415,-2.21,-0.40,0.61,2.33
5.425,-1.69,0.07,0.32,1.72
5.435,-1.12,0.63,-0.11,1.29
5.445,-0.38,0.60,-0.91,1.15
5.455,0.94,0.24,-1.57,1.84
5.465,2.43,-0.05,-2.08,3.19
5.475,3.95,0.12,-2.36,4.60
5.485,5.21,0.82,-2.41,5.80
5.495,5.55,1.70,-2.48,6.31
5.505,4.99,2.65,-2.08,6.02
5.515,4.20,3.12,-1.65,5.49
5.525,3.19,2.87,-1.29,4.48
5.535,1.59,2.33,-0.64,2.89
5.545,0.49,1.56,-0.49,1.71
5.555,1.10,0.84,-0.61,1.52
5.565,3.64,0.05,-0.79,3.73
5.575,7.13,-0.16,-0.25,7.14
5.585,8.43,0.37,0.43,8.44
5.595,5.42,0.75,0.41,5.49
5.605,1.26,0.67,0.64,1.56
5.615,-0.56,0.01,1.23,1.35
5.625,-0.27,-0.84,1.75,1.97
5.635,0.98,-1.44,2.10,2.73
5.645,2.04,-1.87,1.86,3.33
5.655,2.27,-2.11,1.20,3.33
5.665,2.20,-2.08,0.61,3.09
5.675,2.20,-1.67,0.14,2.76
5.685,2.05,-0.84,-0.37,2.25
5.695,1.38,0.16,-0.76,1.58
5.705,0.53,0.84,-0.91,1.35
5.715,-0.04,0.98,-0.90,1.33
5.725,-0.31,0.74,-0.78,1.12
5.735,-0.61,0.42,-0.63,0.97
5.745,-0.96,0.24,-0.54,1.13
5.755,-1.28,0.14,-0.54,1.39
5.765,-1.50,0.08,-0.60,1.62
5.775,-1.55,0.10,-0.68,1.70
5.785,-1.38,0.24,-0.70,1.56
5.795,-1.08,0.32,-0.68,1.32
5.805,-0.68,0.28,-0.69,1.01
5.815,-0.41,0.16,-0.69,0.82
5.825,-0.30,-0.02,-0.64,0.71
5.835,-0.26,-0.26,-0.58,0.68
5.845,-0.23,-0.45,-0.53,0.73
5.855,-0.19,-0.59,-0.45,0.76
5.865,-0.10,-0.62,-0.39,0.74
5.875,-0.07,-0.49,-0.37,0.62
5.885,-0.07,-0.23,-0.39,0.46
5.895,-0.16,0.00,-0.44,0.47
5.906,-0.30,0.18,-0.41,0.53
5.915,-0.41,0.22,-0.26,0.53
5.925,-0.49,0.12,-0.10,0.52
5.935,-0.65,-0.04,0.05,0.66
5.945,-0.84,-0.30,0.19,0.91
5.955,-0.88,-0.59,0.24,1.08
5.965,-0.84,-0.84,0.21,1.21
5.975,-0.78,-1.04,0.12,1.31
5.986,-0.74,-1.15,-0.02,1.37
5.995,-0.78,-1.20,-0.15,1.44
6.006,-0.93,-1.21,-0.21,1.53
6.015,-1.09,-1.11,-0.33,1.59
6.026,-1.36,-0.99,-0.54,1.77
6.035,-1.60,-0.93,-0.74,1.99
6.046,-1.73,-0.80,-1.01,2.16
6.055,-1.80,-0.58,-1.22,2.25
6.066,-1.75,-0.23,-1.12,2.09
6.075,-1.63,0.06,-0.83,1.83
6.086,-1.85,-0.08,-0.73,1.99
6.096,-2.19,-0.51,-1.03,2.47
6.106,-2.37,-0.76,-0.98,2.67
6.115,-2.52,-1.00,-0.76,2.81
6.126,-2.48,-1.14,-0.60,2.80
6.135,-2.35,-1.11,-0.62,2.67
6.146,-1.76,-0.85,-0.87,2.14
6.156,-0.85,-0.46,-1.11,1.47
6.166,-0.17,-0.09,-1.16,1.18
6.176,0.10,0.19,-0.82,0.85
6.186,-0.11,0.24,-0.57,0.63
6.196,-0.75,0.11,-0.45,0.89
6.206,-1.25,-0.38,-0.30,1.34
6.216,-1.44,-1.02,-0.28,1.79
6.226,-1.60,-1.35,-0.32,2.12
6.236,-1.98,-1.30,-0.44,2.41
6.246,-2.29,-1.01,-0.43,2.54
6.256,-2.28,-0.80,-0.25,2.43
6.266,-1.72,-0.94,-0.07,1.97
6.276,-0.62,-1.20,-0.04,1.35
6.286,0.27,-1.34,0.11,1.37
6.296,0.73,-1.28,0.29,1.51
6.306,0.35,-1.21,0.14,1.26
6.316,-0.31,-1.10,-0.26,1.17
6.326,-0.68,-0.51,-0.37,0.93
6.336,-0.59,0.11,-0.11,0.61
6.346,0.24,0.80,0.20,0.86
6.356,1.59,1.26,0.29,2.05
6.366,2.86,1.34,0.17,3.17
6.376,3.86,0.81,0.28,3.96
6.386,4.86,-0.01,0.31,4.87
6.396,5.54,-0.30,-0.06,5.55
6.406,4.91,-0.08,-0.34,4.93
6.416,3.46,0.26,-0.28,3.48
6.426,2.37,0.77,0.17,2.50
6.436,2.12,1.48,1.05,2.79
6.446,2.65,2.23,1.96,3.98
6.456,3.46,2.39,2.35,4.82
6.466,4.41,1.82,1.87,5.12
6.476,4.89,1.22,1.13,5.16
6.486,4.53,0.73,0.55,4.62
6.496,3.59,0.32,-0.01,3.60
6.506,2.35,0.00,-0.41,2.39
6.516,0.85,-0.24,-0.70,1.13
6.526,-0.53,-0.45,-0.91,1.14
6.536,-1.45,-0.40,-0.84,1.73
6.546,-2.12,-0.07,-0.66,2.22
6.556,-2.38,0.62,-0.42,2.50
6.566,-2.24,1.47,-0.13,2.68
6.576,-1.84,2.11,0.22,2.81
6.586,-1.18,2.41,0.57,2.74
6.596,-0.42,2.36,0.84,2.54
6.606,0.18,2.03,0.85,2.20
6.616,0.48,1.49,0.63,1.69
6.626,0.44,0.86,0.15,0.98
6.636,0.28,0.31,-0.38,0.56
6.646,0.11,-0.09,-0.74,0.75
6.656,-0.05,-0.44,-0.94,1.04
6.666,-0.18,-0.67,-1.00,1.21
6.676,-0.20,-0.68,-0.85,1.11
6.686,-0.17,-0.40,-0.59,0.73
6.696,-0.08,0.00,-0.31,0.32
6.706,0.05,0.31,-0.09,0.33
6.716,-0.03,0.52,0.16,0.55
6.726,-0.13,0.59,0.43,0.75
6.736,-0.31,0.52,0.66,0.90
6.746,-0.60,0.35,0.76,1.03
6.756,-0.86,0.12,0.78,1.17
6.766,-1.07,-0.09,0.68,1.27
6.776,-1.10,-0.22,0.52,1.24
6.786,-1.00,-0.25,0.40,1.10
6.796,-0.78,-0.23,0.40,0.90
6.806,-0.48,-0.20,0.38,0.65
6.816,-0.28,-0.19,0.39,0.51
6.826,-0.24,-0.14,0.45,0.53
6.836,-0.33,-0.10,0.55,0.65
6.846,-0.55,-0.07,0.65,0.85
6.856,-0.76,-0.08,0.76,1.08
6.866,-0.93,-0.16,0.80,1.23
6.876,-1.05,-0.27,0.72,1.30
6.886,-1.12,-0.32,0.66,1.34
6.896,-1.14,-0.31,0.64,1.34
6.906,-1.13,-0.22,0.59,1.30
6.916,-1.10,-0.08,0.47,1.20
6.926,-1.12,0.05,0.30,1.16
6.936,-1.14,0.17,0.11,1.16
6.946,-1.19,0.32,-0.12,1.23
6.956,-1.24,0.40,-0.33,1.34
6.966,-1.32,0.51,-0.40,1.47
6.976,-1.32,0.65,-0.38,1.52
6.986,-1.31,0.67,-0.36,1.51
6.996,-1.29,0.59,-0.45,1.49
7.006,-1.21,0.49,-0.44,1.37
7.016,-1.11,0.43,-0.17,1.20
7.026,-0.94,0.32,0.05,1.00
7.037,-0.95,0.16,0.10,0.97
7.046,-1.07,0.11,0.16,1.09
7.056,-1.30,0.07,0.28,1.33
7.066,-1.58,-0.02,0.36,1.62
7.076,-1.75,-0.08,0.38,1.79
7.086,-1.85,-0.12,0.41,1.90
7.096,-1.88,-0.15,0.38,1.93
7.106,-1.81,-0.11,0.41,1.86
7.117,-1.64,-0.02,0.42,1.69
7.127,-1.32,0.14,0.35,1.37
7.137,-0.97,0.43,0.27,1.10
7.147,-0.65,0.71,0.10,0.97
7.157,-0.49,0.88,-0.13,1.02
7.167,-0.59,0.93,-0.33,1.15
7.177,-0.99,0.73,-0.47,1.32
7.187,-1.58,0.40,-0.52,1.71
7.197,-2.13,0.10,-0.41,2.17
7.207,-2.46,0.06,-0.22,2.47
7.217,-2.55,0.23,-0.06,2.56
7.227,-2.19,0.47,-0.20,2.25
7.237,-1.56,1.19,-0.25,1.98
7.247,-1.22,1.41,-0.24,1.88
7.257,-0.62,0.69,-0.24,0.96
7.267,0.46,0.00,-0.46,0.65
7.277,1.60,-0.26,-1.21,2.02
7.287,3.19,-0.18,-1.29,3.45
7.297,4.69,0.27,-1.74,5.01
7.307,5.06,1.25,-1.99,5.58
7.317,4.38,2.23,-1.72,5.21
7.327,3.34,2.90,-1.70,4.74
7.337,1.51,3.39,-1.84,4.14
7.347,-0.91,3.40,-1.77,3.94
7.357,-2.33,2.69,-1.44,3.83
7.367,-1.37,1.14,-0.62,1.89
7.377,2.29,-0.68,0.20,2.40
7.387,7.12,-2.10,0.16,7.42
7.397,10.79,-3.10,0.41,11.23
7.407,11.37,-4.80,0.83,12.37
7.417,7.93,-5.07,0.73,9.44
7.427,3.31,-3.38,0.83,4.80
7.437,0.05,-1.86,0.72,1.99
7.447,-1.46,-0.43,0.51,1.60
7.457,-1.90,0.99,0.38,2.17
7.467,-2.13,1.76,0.21,2.77
7.477,-2.21,1.75,0.03,2.82
7.487,-1.95,1.09,-0.09,2.24
7.497,-1.17,0.21,-0.12,1.19
7.507,-0.06,-0.52,-0.13,0.53
7.517,0.92,-1.13,-0.19,1.47
7.527,1.24,-1.69,-0.26,2.11
7.537,1.02,-2.00,-0.26,2.26
7.547,0.47,-2.02,-0.34,2.10
7.557,-0.35,-1.81,-0.53,1.92
7.567,-0.94,-1.33,-0.69,1.77
7.577,-1.00,-0.63,-0.78,1.42
7.587,-0.70,0.02,-0.74,1.02
7.597,-0.09,0.49,-0.65,0.83
7.607,0.35,0.81,-0.48,1.00
7.617,0.27,0.94,-0.29,1.02
7.627,-0.16,0.87,-0.12,0.89
7.637,-0.64,0.61,-0.02,0.88
7.647,-0.88,0.24,-0.00,0.91
7.657,-0.80,-0.12,0.02,0.81
7.667,-0.50,-0.36,0.02,0.62
7.677,-0.13,-0.51,0.01,0.53
7.687,0.17,-0.60,-0.05,0.63
7.697,0.32,-0.59,-0.11,0.68
7.707,0.36,-0.51,-0.12,0.64
7.717,0.19,-0.49,-0.13,0.54
7.727,-0.06,-0.49,-0.17,0.53
7.737,-0.30,-0.49,-0.22,0.61
7.747,-0.51,-0.50,-0.27,0.76
7.757,-0.64,-0.59,-0.28,0.91
7.767,-0.72,-0.72,-0.30,1.06
7.777,-0.68,-0.68,-0.38,1.03
7.787,-0.72,-0.55,-0.54,1.05
7.797,-0.84,-0.41,-0.73,1.18
7.807,-1.08,-0.29,-0.88,1.42
7.817,-1.32,-0.23,-1.12,1.75
7.827,-1.55,-0.18,-1.37,2.07
7.837,-1.85,-0.12,-1.44,2.35
7.847,-2.21,-0.13,-1.43,2.64
7.857,-2.55,-0.13,-1.23,2.83
7.867,-2.86,-0.39,-1.04,3.07
7.877,-2.72,-0.69,-0.95,2.96
7.887,-2.14,-0.83,-0.82,2.43
7.897,-1.48,-0.86,-0.61,1.82
7.907,-1.05,-0.88,-0.57,1.48
7.917,-1.02,-0.78,-0.70,1.47
7.927,-1.24,-0.55,-0.80,1.57
7.937,-1.39,-0.33,-1.15,1.83
7.947,-1.43,-0.02,-1.44,2.02
7.957,-1.55,0.18,-1.33,2.05
7.967,-1.64,0.18,-0.96,1.91
7.977,-1.71,0.11,-0.80,1.89
7.987,-1.89,0.00,-0.73,2.03
7.997,-1.98,-0.20,-0.66,2.10
8.007,-1.88,-0.57,-0.69,2.08
8.017,-1.61,-1.06,-1.09,2.21
8.027,-1.39,-1.23,-1.45,2.35
8.037,-1.19,-0.96,-1.48,2.12
8.047,-1.05,-0.46,-1.29,1.73
8.057,-0.93,-0.07,-1.15,1.48
8.067,-0.80,-0.12,-0.68,1.06
8.077,-0.61,-0.82,-0.16,1.03
8.087,-0.18,-1.61,0.23,1.64
8.097,0.27,-2.27,0.07,2.29
8.108,0.68,-2.27,-0.03,2.37
8.117,0.69,-1.67,-0.04,1.81
8.127,0.90,-0.46,-0.03,1.01
8.137,1.22,0.67,-0.24,1.41
8.147,1.72,1.53,-0.08,2.30
8.157,2.79,1.98,0.54,3.46
8.167,4.25,1.43,1.26,4.66
8.177,5.38,0.14,1.68,5.64
8.187,5.62,-0.73,1.76,5.94
8.197,4.51,-0.87,1.52,4.83
8.208,2.81,-0.39,1.24,3.09
8.217,1.37,0.40,1.03,1.76
8.227,0.58,1.41,1.06,1.86
8.238,1.27,2.28,0.99,2.79
8.248,3.57,2.50,0.55,4.39
8.257,5.65,2.35,0.38,6.13
8.267,6.07,2.16,0.31,6.45
8.277,4.84,1.95,0.10,5.22
8.288,3.09,1.52,0.13,3.44
8.297,1.30,0.64,0.10,1.45
8.308,-0.07,-0.35,0.13,0.38
8.318,-0.78,-1.03,0.25,1.32
8.328,-1.00,-1.13,0.37,1.55
8.338,-0.88,-0.65,0.45,1.19
8.348,-0.52,0.06,0.52,0.74
8.358,-0.04,0.69,0.63,0.94
8.368,0.31,1.10,0.66,1.32
8.378,0.57,1.38,0.74,1.66
8.388,0.61,1.42,0.51,1.63
8.398,0.43,1.31,0.13,1.38
8.408,0.06,1.06,-0.26,1.10
8.418,-0.29,0.79,-0.62,1.05
8.428,-0.63,0.61,-0.87,1.24
8.438,-0.90,0.46,-1.07,1.47
8.448,-0.97,0.31,-1.15,1.54
8.458,-0.86,0.24,-1.20,1.49
8.468,-0.70,0.25,-1.13,1.36
8.478,-0.56,0.33,-1.01,1.20
8.488,-0.41,0.43,-0.81,1.00
8.498,-0.33,0.51,-0.57,0.84
8.508,-0.31,0.55,-0.34,0.72
8.518,-0.31,0.53,-0.14,0.63
8.528,-0.35,0.47,0.04,0.59
8.538,-0.41,0.43,0.16,0.61
8.548,-0.50,0.37,0.27,0.68
8.558,-0.58,0.30,0.35,0.74
8.568,-0.59,0.18,0.35,0.71
8.578,-0.48,0.09,0.29,0.56
8.588,-0.42,0.11,0.24,0.50
8.598,-0.42,0.18,0.23,0.52
8.608,-0.48,0.13,0.25,0.56
8.618,-0.53,0.04,0.23,0.57
8.628,-0.59,0.02,0.22,0.63
8.638,-0.70,0.04,0.23,0.74
8.648,-0.77,0.16,0.31,0.85
8.658,-0.81,0.34,0.43,0.98
8.668,-0.78,0.53,0.52,1.08
8.678,-0.73,0.66,0.50,1.10
8.688,-0.64,0.68,0.49,1.05
8.698,-0.64,0.48,0.49,0.93
8.708,-0.66,0.14,0.47,0.82
8.718,-0.75,-0.28,0.43,0.91
8.728,-0.86,-0.66,0.45,1.17
8.738,-0.99,-0.99,0.56,1.50
8.748,-1.15,-1.26,0.68,1.84
8.758,-1.35,-1.38,0.76,2.07
8.768,-1.51,-1.29,0.76,2.13
8.778,-1.63,-1.07,0.60,2.04
8.788,-1.73,-0.82,0.38,1.95
8.798,-1.79,-0.61,0.28,1.92
8.808,-1.79,-0.46,0.27,1.87
8.818,-1.67,-0.38,0.20,1.72
8.828,-1.56,-0.32,-0.02,1.59
8.838,-1.55,-0.25,-0.26,1.59
8.848,-1.66,-0.21,-0.55,1.76
8.858,-1.83,-0.17,-0.81,2.01
8.868,-2.06,-0.17,-0.93,2.27
8.878,-2.23,-0.20,-0.95,2.43
8.888,-2.27,-0.28,-0.76,2.42
8.898,-2.22,-0.37,-0.58,2.32
8.908,-2.03,-0.35,-0.36,2.09
8.918,-1.82,-0.16,0.06,1.82
8.928,-1.54,-0.01,0.37,1.58
8.938,-1.15,0.11,0.49,1.26
8.948,-0.71,0.19,0.40,0.84
8.958,-0.40,0.28,0.19,0.53
8.968,-0.46,0.22,0.13,0.53
8.978,-0.75,-0.12,-0.12,0.77
8.988,-1.03,-0.30,-0.34,1.13
8.998,-1.37,-0.24,-0.31,1.42
9.008,-1.67,-0.11,-0.18,1.68
9.018,-1.74,0.14,-0.04,1.74
9.028,-1.59,0.47,0.12,1.67
9.038,-1.55,0.65,0.34,1.71
9.048,-1.50,0.56,0.36,1.64
9.058,-1.28,0.60,0.32,1.45
9.068,-1.09,0.55,0.31,1.26
9.078,-0.40,0.07,0.25,0.48
9.088,1.05,0.03,0.17,1.06
9.098,2.50,0.24,0.05,2.51
9.109,3.81,0.40,-0.37,3.85
9.118,4.35,0.93,-1.41,4.67
9.128,3.91,1.90,-1.71,4.67
9.138,2.84,2.49,-1.28,3.98
9.148,1.68,2.34,-1.11,3.09
9.158,0.25,2.15,-1.24,2.49
9.168,-0.89,1.87,-1.42,2.51
9.178,0.04,1.15,-1.29,1.73
9.188,3.77,-0.12,-1.00,3.90
9.198,9.73,-0.87,-0.76,9.80
9.209,13.54,-0.52,0.15,13.55
9.218,11.02,0.41,0.33,11.03
9.228,4.14,1.13,0.36,4.31
9.238,-0.88,1.08,0.64,1.54
9.248,-3.30,0.77,0.84,3.49
9.258,-4.04,0.71,1.22,4.28
9.268,-3.49,0.31,1.20,3.70
9.278,-1.70,-0.78,0.88,2.07
9.288,0.13,-2.04,0.45,2.09
9.298,1.61,-2.82,0.06,3.25
9.308,2.57,-2.65,-0.26,3.70
9.318,2.77,-1.90,-0.61,3.41
9.328,1.98,-1.09,-1.05,2.49
9.338,0.71,-0.54,-1.33,1.60
9.348,-0.31,-0.25,-1.34,1.40
9.358,-0.83,-0.17,-1.28,1.54
9.369,-0.92,-0.14,-1.03,1.39
9.378,-0.65,-0.08,-0.75,1.00
9.388,-0.49,-0.02,-0.49,0.70
9.398,-0.53,-0.06,-0.28,0.61
9.409,-0.45,-0.19,-0.10,0.50
9.418,-0.30,-0.38,0.03,0.49
9.428,-0.12,-0.55,0.10,0.57
9.438,0.05,-0.68,0.09,0.69
9.448,0.05,-0.75,0.01,0.76
9.458,-0.20,-0.71,-0.14,0.75
9.469,-0.50,-0.60,-0.33,0.85
9.479,-0.64,-0.51,-0.50,0.96
9.489,-0.56,-0.44,-0.63,0.95
9.499,-0.29,-0.34,-0.70,0.83
9.509,0.03,-0.28,-0.73,0.78
9.519,0.24,-0.24,-0.68,0.76
9.529,0.29,-0.20,-0.60,0.70
9.539,0.10,-0.18,-0.54,0.58
9.549,-0.33,-0.13,-0.54,0.65
9.559,-0.87,-0.03,-0.55,1.03
9.569,-1.44,-0.05,-0.55,1.54
9.579,-1.79,-0.19,-0.53,1.88
9.589,-1.90,-0.41,-0.53,2.02
9.599,-1.73,-0.69,-0.50,1.93
9.609,-1.41,-1.03,-0.43,1.80
9.619,-1.12,-1.29,-0.60,1.80
9.629,-0.93,-1.21,-0.91,1.78
9.639,-0.94,-0.88,-1.16,1.73
9.649,-1.01,-0.50,-1.19,1.64
9.659,-1.24,-0.29,-1.23,1.77
9.669,-1.67,-0.17,-1.32,2.14
9.679,-2.02,-0.07,-1.19,2.35
9.689,-2.10,-0.05,-1.00,2.33
9.699,-2.00,-0.24,-0.98,2.24
9.709,-1.93,-0.49,-1.04,2.25
9.719,-1.94,-0.56,-1.07,2.29
9.729,-1.99,-0.54,-0.89,2.24
9.739,-1.82,-0.49,-0.96,2.11
9.749,-1.53,-0.29,-1.21,1.97
9.759,-1.30,-0.21,-1.17,1.76
9.769,-1.15,-0.50,-0.81,1.49
9.779,-1.08,-1.09,-0.59,1.65
9.789,-1.31,-1.65,-0.40,2.15
9.799,-1.65,-2.32,0.17,2.85
9.809,-2.05,-3.04,0.77,3.75
9.819,-2.22,-3.43,1.04,4.21
9.829,-2.14,-3.34,0.75,4.03
9.839,-1.81,-2.78,0.34,3.34
9.849,-1.38,-1.93,-0.08,2.37
9.859,-0.87,-0.83,-0.58,1.34
9.869,-0.57,0.28,-0.98,1.17
9.879,-0.68,0.99,-1.10,1.63
9.889,-0.51,1.38,-0.91,1.73
9.899,0.01,1.85,-0.68,1.97
9.909,0.57,1.93,-0.45,2.06
9.919,1.20,1.72,0.01,2.10
9.929,1.83,1.14,-0.01,2.16
9.939,2.43,0.58,-0.23,2.50
9.949,2.96,0.31,-0.23,2.99
9.959,3.47,-0.04,-0.24,3.48
9.969,4.08,-0.08,-0.20,4.09
9.979,4.18,0.17,0.04,4.18
9.989,3.74,0.31,0.29,3.77
9.999,3.30,0.37,0.60,3.38
10.009,3.26,0.33,0.83,3.38
10.019,3.79,0.47,1.03,3.96
10.029,4.50,0.87,1.14,4.72
10.039,4.92,1.55,1.20,5.30
10.049,4.36,2.27,1.11,5.04
10.059,3.53,2.70,0.95,4.54
10.069,2.97,2.50,0.54,3.92
10.079,2.64,1.71,0.16,3.15
10.089,2.29,0.82,-0.28,2.45
10.099,1.84,0.27,-0.51,1.93
10.109,1.01,0.07,-0.53,1.14
10.119,-0.00,-0.09,-0.40,0.41
10.129,-0.84,-0.32,-0.26,0.94
10.139,-1.37,-0.48,-0.12,1.45
10.149,-1.54,-0.48,0.10,1.61
10.159,-1.42,-0.25,0.32,1.48
10.169,-1.17,0.20,0.46,1.27
10.179,-0.94,0.65,0.47,1.24
10.189,-0.81,0.98,0.34,1.32
10.199,-0.74,1.13,0.15,1.36
10.209,-0.72,1.08,-0.14,1.31
10.219,-0.71,1.02,-0.45,1.32
10.229,-0.75,0.93,-0.65,1.36
10.239,-0.66,0.74,-0.79,1.27
10.249,-0.46,0.46,-0.80,1.03
10.259,-0.23,0.19,-0.70,0.77
10.269,-0.11,0.00,-0.50,0.51
10.279,-0.02,-0.05,-0.31,0.32
10.290,-0.04,0.00,-0.16,0.16
10.299,-0.20,0.15,-0.04,0.26
10.309,-0.49,0.24,-0.00,0.54
10.319,-0.86,0.23,0.07,0.90
10.329,-1.16,0.27,0.21,1.21
10.339,-1.40,0.37,0.38,1.50
10.349,-1.45,0.47,0.55,1.62
10.359,-1.26,0.47,0.68,1.50
10.369,-0.89,0.34,0.67,1.17
10.379,-0.45,0.13,0.63,0.79
10.389,-0.17,-0.09,0.61,0.64
10.399,0.01,-0.28,0.58,0.64
10.409,0.08,-0.50,0.55,0.75
10.419,-0.10,-0.72,0.52,0.89
10.430,-0.44,-0.88,0.46,1.09
10.440,-0.83,-0.92,0.43,1.31
10.450,-1.22,-0.81,0.40,1.51
10.459,-1.50,-0.70,0.40,1.70
10.470,-1.58,-0.51,0.34,1.69
10.480,-1.79,-0.31,0.14,1.82
10.490,-2.13,-0.36,-0.21,2.17
10.499,-2.21,-0.34,-0.44,2.28
10.510,-2.34,-0.06,-0.69,2.44
10.520,-2.56,0.41,-0.96,2.77
10.530,-2.83,0.77,-1.08,3.13
10.540,-3.02,0.86,-1.16,3.35
10.550,-3.04,0.69,-1.14,3.31
10.560,-2.90,0.41,-1.00,3.10
10.570,-2.55,0.14,-0.73,2.66
10.580,-2.07,0.03,-0.31,2.10
10.590,-1.56,0.06,-0.08,1.57
10.600,-1.17,0.20,0.14,1.19
10.610,-1.03,0.26,0.33,1.12
10.620,-1.05,0.13,0.26,1.09
10.630,-1.13,0.08,0.06,1.13
10.640,-1.22,0.07,-0.02,1.22
10.650,-1.42,0.00,-0.14,1.43
10.660,-1.66,0.06,-0.28,1.69
10.670,-1.89,0.09,-0.38,1.93
10.680,-2.08,0.01,-0.37,2.11
10.690,-2.31,-0.20,-0.31,2.34
10.700,-2.38,-0.25,-0.14,2.40
10.710,-2.29,-0.09,-0.15,2.30
10.720,-2.06,0.09,-0.22,2.07
10.730,-1.72,0.21,-0.31,1.76
10.740,-0.99,-0.05,-0.85,1.30
10.750,0.44,-0.22,-1.31,1.40
10.760,2.15,-0.25,-1.25,2.50
10.770,4.01,-0.55,-1.16,4.21
10.780,5.13,-0.47,-1.67,5.42
10.790,5.03,0.29,-2.18,5.49
10.800,4.57,1.32,-1.76,5.07
10.810,4.03,2.23,-1.16,4.75
10.820,2.55,3.03,-0.70,4.03
10.830,1.15,3.15,0.24,3.36
10.840,3.12,1.76,-0.17,3.59
10.850,9.05,0.11,-0.12,9.05
10.860,14.36,-1.09,1.60,14.49
10.870,13.10,-1.24,2.46,13.39
10.880,5.99,-0.74,2.85,6.67
10.890,0.04,-0.48,2.81,2.85
10.900,-2.73,-0.76,2.73,3.94
10.910,-3.74,-0.93,2.65,4.68
10.920,-3.45,-1.15,2.52,4.42
10.930,-2.49,-1.80,2.12,3.74
10.940,-1.38,-2.80,1.22,3.35
10.950,-0.48,-3.32,0.33,3.37
10.960,0.47,-2.83,-0.30,2.89
10.970,1.45,-1.63,-0.86,2.34
10.980,1.90,-0.43,-1.46,2.43
10.990,1.64,0.45,-1.86,2.52
11.000,1.01,0.97,-2.11,2.53
11.010,0.22,1.14,-2.31,2.59
11.020,-0.39,1.03,-2.32,2.57
11.030,-0.87,0.73,-2.11,2.39
11.040,-1.15,0.36,-1.65,2.05
11.050,-1.28,0.04,-1.23,1.78
11.060,-1.23,-0.26,-0.92,1.56
11.070,-0.87,-0.46,-0.65,1.18
11.080,-0.30,-0.56,-0.55,0.84
11.090,0.12,-0.42,-0.46,0.63
11.100,0.17,-0.24,-0.39,0.49
11.110,-0.04,-0.18,-0.34,0.39
11.120,-0.36,-0.29,-0.32,0.56
11.130,-0.48,-0.48,-0.35,0.76
11.140,-0.39,-0.60,-0.30,0.78
11.150,-0.16,-0.71,-0.18,0.75
11.160,0.03,-0.85,0.01,0.85
11.170,0.10,-0.94,0.20,0.97
11.180,-0.01,-0.92,0.26,0.96
11.190,-0.26,-0.83,0.28,0.92
11.200,-0.52,-0.74,0.17,0.92
11.210,-0.73,-0.68,0.05,1.00
11.220,-0.88,-0.66,-0.02,1.10
11.230,-1.08,-0.63,-0.23,1.26
11.240,-1.29,-0.54,-0.40,1.45
11.250,-1.44,-0.43,-0.61,1.62
11.260,-1.41,-0.13,-0.65,1.55
11.270,-1.55,-0.05,-0.77,1.73
11.280,-1.81,-0.10,-1.08,2.11
11.290,-2.07,-0.09,-1.13,2.36
11.300,-2.26,-0.27,-1.01,2.49
11.310,-2.22,-0.42,-1.13,2.53
11.320,-2.12,-0.50,-1.40,2.59
11.330,-2.15,-0.42,-1.75,2.80
11.340,-2.45,-0.20,-1.98,3.16
11.350,-2.98,0.02,-2.30,3.77
11.360,-3.46,0.33,-2.46,4.26
11.370,-3.79,0.49,-2.40,4.51
11.380,-3.78,0.34,-1.96,4.27
11.390,-3.25,-0.29,-1.39,3.54
11.400,-2.13,-1.14,-0.99,2.61
11.410,-0.76,-1.79,-0.76,2.09
11.420,0.11,-2.19,-0.60,2.27
11.430,0.57,-2.13,-0.70,2.32
11.440,0.56,-1.55,-0.87,1.87
11.450,-0.01,-0.85,-1.07,1.37
11.460,-0.76,-0.26,-1.13,1.39
11.470,-1.26,-0.01,-1.04,1.63
11.481,-1.22,-0.35,-1.08,1.66
11.490,-0.86,-1.04,-0.91,1.63
11.500,-0.29,-1.86,-0.47,1.94
11.511,0.17,-2.39,-0.03,2.40
11.520,0.07,-2.86,0.03,2.86
11.531,0.06,-2.55,0.30,2.57
11.540,-0.03,-1.85,0.67,1.97
11.551,0.29,-1.13,0.77,1.40
11.560,0.94,-0.34,0.54,1.14
11.571,1.53,0.37,0.56,1.67
11.581,2.29,0.94,0.72,2.58
11.591,3.21,1.14,0.81,3.50
11.601,3.78,0.84,0.62,3.93
11.611,4.14,0.65,0.57,4.23
11.621,4.34,0.92,0.87,4.52
11.631,4.36,1.47,1.48,4.83
11.641,4.47,1.89,1.97,5.24
11.651,5.10,1.97,1.98,5.81
11.661,6.10,1.84,1.88,6.64
11.671,7.01,1.78,1.49,7.38
11.681,6.75,1.66,0.82,7.00
11.691,5.25,1.50,0.27,5.46
11.701,3.35,1.16,0.23,3.55
11.711,1.58,0.42,0.18,1.65
11.721,0.25,-0.27,0.10,0.38
11.731,-0.68,-0.68,0.04,0.96
11.741,-1.20,-0.75,0.05,1.42
11.751,-1.51,-0.49,0.03,1.59
11.761,-1.71,0.02,-0.05,1.71
11.771,-1.67,0.69,-0.04,1.81
11.781,-1.48,1.29,-0.06,1.97
11.791,-1.19,1.66,-0.07,2.05
11.801,-0.96,1.75,-0.02,1.99
11.811,-0.85,1.59,-0.01,1.80
11.821,-0.90,1.27,-0.10,1.56
11.831,-0.96,0.90,-0.19,1.33
11.841,-1.00,0.52,-0.20,1.15
11.851,-1.03,0.25,-0.22,1.09
11.861,-0.93,0.07,-0.23,0.96
11.871,-0.75,0.02,-0.24,0.78
11.881,-0.56,0.09,-0.27,0.62
11.891,-0.38,0.28,-0.24,0.53
11.901,-0.25,0.51,-0.11,0.58
11.911,-0.16,0.69,0.02,0.71
11.921,-0.14,0.75,0.16,0.78
11.931,-0.12,0.67,0.27,0.73
11.941,-0.17,0.50,0.41,0.67
11.951,-0.18,0.29,0.52,0.62
11.961,-0.21,0.04,0.58,0.62
11.971,-0.21,-0.19,0.67,0.72
11.981,-0.21,-0.40,0.65,0.79
11.991,-0.32,-0.51,0.62,0.86
12.001,-0.47,-0.56,0.56,0.92
12.011,-0.64,-0.50,0.57,0.99
12.021,-0.75,-0.40,0.59,1.04
12.031,-0.89,-0.30,0.61,1.12
12.041,-0.97,-0.24,0.62,1.18
12.051,-1.05,-0.23,0.60,1.23
12.061,-1.10,-0.27,0.55,1.26
12.071,-1.17,-0.30,0.49,1.31
12.081,-1.24,-0.32,0.42,1.35
12.091,-1.31,-0.30,0.45,1.42
12.101,-1.40,-0.26,0.54,1.52
12.111,-1.50,-0.21,0.59,1.63
12.121,-1.53,-0.13,0.52,1.62
12.131,-1.51,-0.03,0.29,1.54
12.141,-1.61,0.01,0.12,1.61
12.151,-1.81,-0.05,0.01,1.81
12.161,-2.04,-0.02,-0.12,2.04
12.171,-2.25,0.08,-0.17,2.26
12.181,-2.50,0.05,-0.17,2.51
12.191,-2.68,-0.11,-0.15,2.68
12.201,-2.66,-0.31,-0.18,2.68
12.211,-2.54,-0.45,-0.08,2.58
12.221,-2.38,-0.52,0.04,2.43
12.231,-2.13,-0.36,0.19,2.17
12.241,-1.82,-0.16,0.18,1.83
12.251,-1.58,0.08,0.19,1.59
12.261,-1.36,0.30,0.17,1.40
12.271,-1.09,0.46,-0.23,1.21
12.281,-0.94,0.58,-0.30,1.15
12.291,-0.93,0.50,-0.39,1.13
12.301,-0.97,0.29,-0.29,1.05
12.311,-1.04,0.13,-0.20,1.06
12.321,-1.18,0.10,-0.09,1.18
12.331,-1.41,0.14,-0.08,1.42
12.341,-1.59,0.26,0.03,1.61
12.351,-1.75,0.23,0.21,1.78
12.361,-1.64,-0.04,0.28,1.67
12.371,-1.26,-0.13,0.26,1.29
12.381,-0.65,-0.06,-0.09,0.66
12.391,0.45,-0.24,-0.24,0.56
12.401,2.26,-0.06,-1.45,2.69
12.411,4.04,1.01,-2.42,4.82
12.421,5.53,2.01,-2.41,6.36
12.431,6.19,2.57,-2.74,7.24
12.441,5.32,3.22,-3.18,6.99
12.451,3.13,3.52,-3.04,5.61
12.461,0.84,3.41,-2.57,4.36
12.471,-0.52,3.16,-2.34,3.97
12.481,-1.10,2.76,-1.92,3.54
12.491,-0.77,2.01,-1.32,2.52
12.501,0.44,1.09,-0.94,1.51
12.511,2.08,0.25,-0.53,2.16
12.522,3.41,-0.26,-0.05,3.42
12.531,4.15,-0.77,0.44,4.25
12.541,4.45,-1.67,0.55,4.78
12.551,4.54,-2.87,0.73,5.42
12.561,4.84,-4.04,1.48,6.48
12.571,4.70,-4.73,1.43,6.82
12.581,3.72,-4.39,1.34,5.91
12.591,2.09,-3.24,1.23,4.05
12.601,0.58,-1.87,1.04,2.21
12.612,-0.36,-0.63,0.90,1.16
12.621,-0.86,0.41,0.84,1.27
12.631,-1.32,1.09,0.60,1.81
12.642,-1.42,1.43,0.32,2.03
12.652,-1.12,1.44,-0.03,1.82
12.661,-0.63,1.09,-0.26,1.28
12.672,-0.07,0.57,-0.42,0.71
12.681,0.21,0.09,-0.57,0.61
12.692,0.21,-0.34,-0.77,0.87
12.702,0.05,-0.59,-0.94,1.11
12.712,-0.16,-0.68,-1.01,1.23
12.722,-0.37,-0.65,-0.97,1.22
12.732,-0.59,-0.55,-0.82,1.16
12.742,-0.71,-0.52,-0.63,1.08
12.752,-0.67,-0.52,-0.44,0.95
12.762,-0.50,-0.56,-0.23,0.78
12.772,-0.27,-0.60,0.01,0.66
12.782,-0.11,-0.64,0.17,0.68
12.792,-0.08,-0.64,0.28,0.70
12.802,-0.29,-0.61,0.24,0.72
12.812,-0.70,-0.53,0.10,0.88
12.822,-1.01,-0.49,-0.04,1.13
12.832,-1.12,-0.49,-0.22,1.24
12.842,-1.04,-0.53,-0.36,1.22
12.852,-0.82,-0.56,-0.40,1.07
12.862,-0.58,-0.60,-0.35,0.91
12.872,-0.41,-0.59,-0.28,0.77
12.882,-0.41,-0.51,-0.22,0.69
12.892,-0.62,-0.54,-0.24,0.86
12.902,-1.12,-0.56,-0.46,1.33
12.912,-1.61,-0.46,-0.72,1.83
12.922,-2.06,-0.27,-0.84,2.24
12.932,-2.46,-0.23,-0.76,2.59
12.942,-2.52,-0.42,-0.77,2.67
12.952,-2.14,-0.62,-0.73,2.35
12.962,-1.45,-0.86,-0.64,1.80
12.972,-0.89,-0.98,-0.57,1.44
12.982,-0.62,-0.91,-0.46,1.19
12.992,-0.61,-0.90,-0.32,1.13
13.002,-0.78,-0.94,-0.42,1.29
13.012,-1.02,-0.77,-0.59,1.41
13.022,-1.36,-0.69,-0.63,1.65
13.032,-1.82,-0.78,-0.61,2.07
13.042,-2.09,-0.74,-0.66,2.31
13.052,-2.01,-0.62,-0.72,2.22
13.062,-1.58,-0.61,-0.67,1.82
13.072,-0.93,-0.64,-0.62,1.29
13.082,-0.21,-0.62,-0.63,0.91
13.092,0.33,-0.63,-0.52,0.88
13.102,0.53,-0.80,-0.34,1.02
13.112,0.55,-0.99,-0.16,1.14
13.122,0.32,-1.27,-0.03,1.31
13.132,0.03,-1.48,0.29,1.51
13.142,-0.09,-1.56,0.62,1.68
13.152,-0.05,-1.73,1.06,2.03
13.162,-0.00,-2.10,1.35,2.50
13.172,0.12,-2.46,1.62,2.95
13.182,0.18,-2.71,1.73,3.22
13.192,-0.01,-2.75,1.49,3.13
13.202,-0.31,-2.37,1.12,2.64
13.212,-0.67,-1.73,0.76,2.01
13.222,-0.88,-1.42,0.50,1.75
13.232,-0.22,-1.23,0.65,1.41
13.242,0.83,-1.08,0.56,1.48
13.252,1.42,-1.12,0.15,1.82
13.262,1.58,-0.72,-0.20,1.75
13.272,1.56,0.09,-0.72,1.73
13.282,1.26,1.22,-1.38,2.24
13.292,1.39,2.30,-1.98,3.34
13.302,2.34,2.94,-2.20,4.36
13.312,2.17,3.01,-2.23,4.33
13.322,2.20,3.14,-1.88,4.27
13.332,2.16,3.10,-1.31,4.00
13.342,2.10,2.58,-0.63,3.38
13.352,2.24,1.84,-0.09,2.90
13.362,2.62,1.32,0.16,2.94
13.372,3.11,0.92,0.21,3.25
13.382,3.69,0.68,0.26,3.76
13.392,4.06,0.66,0.32,4.12
13.402,4.03,0.95,0.46,4.17
13.413,3.58,1.24,0.64,3.85
13.422,3.01,1.19,0.74,3.32
13.432,2.32,0.83,0.74,2.57
13.442,1.39,0.47,0.58,1.58
13.452,0.36,0.26,0.38,0.58
13.462,-0.55,0.08,0.24,0.61
13.472,-1.27,-0.13,0.08,1.28
13.482,-1.67,-0.35,-0.05,1.71
13.492,-1.75,-0.45,-0.16,1.81
13.502,-1.49,-0.38,-0.23,1.56
13.512,-1.18,-0.20,-0.22,1.22
13.522,-1.01,0.04,-0.27,1.05
13.532,-0.99,0.21,-0.32,1.06
13.542,-0.94,0.29,-0.42,1.07
13.552,-0.99,0.36,-0.54,1.18
13.562,-1.13,0.44,-0.62,1.36
13.572,-1.30,0.61,-0.69,1.59
13.582,-1.46,0.82,-0.78,1.85
13.593,-1.49,1.00,-0.74,1.94
13.602,-1.32,1.02,-0.68,1.81
13.612,-0.94,0.89,-0.59,1.42
13.622,-0.59,0.76,-0.51,1.09
13.633,-0.41,0.62,-0.35,0.83
13.642,-0.36,0.49,-0.18,0.63
13.652,-0.29,0.37,0.01,0.47
13.662,-0.15,0.25,0.19,0.35
13.673,0.03,0.07,0.38,0.38
13.683,0.13,-0.18,0.55,0.60
13.693,0.17,-0.38,0.65,0.77
13.702,0.13,-0.41,0.71,0.83
13.713,-0.07,-0.43,0.69,0.81
13.722,-0.30,-0.40,0.55,0.74
13.733,-0.48,-0.29,0.43,0.71
13.742,-0.60,-0.11,0.48,0.78
13.753,-0.59,0.07,0.56,0.82
13.762,-0.52,0.26,0.51,0.77
13.773,-0.42,0.47,0.52,0.82
13.783,-0.46,0.49,0.50,0.84
13.793,-0.43,0.40,0.49,0.76
13.802,-0.48,0.40,0.38,0.74
13.813,-0.58,0.43,0.34,0.80
13.823,-0.72,0.29,0.36,0.86
13.833,-0.71,0.02,0.32,0.78
13.843,-0.61,-0.07,0.33,0.70
13.853,-0.60,0.08,0.46,0.76
13.863,-0.50,0.16,0.54,0.75
13.873,-0.39,0.13,0.64,0.76
13.883,-0.32,0.05,0.78,0.84
13.893,-0.21,-0.06,0.90,0.93
13.903,-0.10,-0.21,1.02,1.05
13.913,-0.13,-0.45,1.18,1.27
13.923,-0.28,-0.68,1.37,1.56
13.933,-0.42,-0.86,1.49,1.77
13.943,-0.41,-1.02,1.57,1.92
13.953,-0.31,-1.11,1.62,1.99
13.963,-0.11,-1.10,1.63,1.97
13.973,0.26,-1.07,1.60,1.94
13.983,0.84,-0.93,1.44,1.90
13.993,1.52,-0.52,1.18,1.99
14.003,2.06,-0.03,0.97,2.28
14.013,2.21,0.28,0.75,2.35
14.023,1.89,0.52,0.40,2.00
14.033,1.32,0.84,0.07,1.57
14.043,0.92,1.16,-0.21,1.50
14.053,1.19,1.30,-0.48,1.83
14.063,1.90,1.36,-0.75,2.46
14.073,2.36,1.33,-0.82,2.83
14.083,2.13,1.16,-0.78,2.55
14.093,1.42,0.98,-0.70,1.87
14.103,0.47,0.72,-0.38,0.94
14.113,-0.57,0.22,-0.26,0.66
14.123,-1.37,-0.23,-0.34,1.43
14.133,-1.77,-0.42,-0.54,1.90
14.143,-1.64,-0.30,-0.73,1.82
14.153,-1.12,-0.03,-0.90,1.43
14.163,-0.62,0.07,-1.25,1.39
14.173,-0.15,0.10,-1.69,1.70
14.183,0.26,0.36,-2.06,2.11
14.193,0.49,0.59,-2.33,2.45
14.203,0.52,0.67,-2.39,2.53
14.213,0.48,0.73,-2.26,2.42
14.223,0.60,0.83,-2.04,2.28
14.233,0.66,0.98,-1.73,2.09
14.243,0.58,1.05,-1.37,1.83
14.253,0.41,1.03,-1.07,1.54
14.263,0.22,0.83,-0.91,1.25
14.273,0.10,0.57,-0.83,1.01
14.283,0.01,0.23,-0.82,0.85
14.293,-0.13,-0.08,-0.80,0.81
14.303,-0.17,-0.23,-0.73,0.79
14.313,-0.17,-0.30,-0.69,0.77
14.323,-0.23,-0.35,-0.69,0.81
14.333,-0.26,-0.29,-0.68,0.78
14.343,-0.34,-0.23,-0.69,0.80
14.353,-0.47,-0.15,-0.65,0.82
14.363,-0.64,-0.10,-0.61,0.89
14.373,-0.85,-0.08,-0.60,1.04
14.383,-0.99,-0.12,-0.60,1.16
14.393,-1.06,-0.22,-0.67,1.27
14.403,-1.11,-0.39,-0.70,1.37
14.413,-0.97,-0.53,-0.71,1.31
14.423,-0.68,-0.56,-0.76,1.16
14.433,-0.42,-0.51,-0.78,1.02
14.443,-0.20,-0.41,-0.76,0.88
14.453,-0.03,-0.33,-0.68,0.76
14.463,0.10,-0.26,-0.64,0.70
14.473,0.18,-0.21,-0.59,0.65
14.483,0.21,-0.15,-0.57,0.63
14.493,0.18,-0.10,-0.54,0.57
14.503,0.11,-0.11,-0.46,0.48
14.513,0.01,-0.16,-0.35,0.39
14.523,-0.07,-0.24,-0.24,0.35
14.533,-0.09,-0.32,-0.14,0.36
14.543,-0.09,-0.39,-0.05,0.40
14.553,-0.08,-0.39,0.04,0.41
14.563,-0.09,-0.43,0.09,0.45
14.573,-0.09,-0.51,0.11,0.53
14.583,-0.03,-0.66,0.12,0.67
14.593,0.04,-0.82,0.15,0.83
14.603,0.10,-0.96,0.14,0.98
14.613,0.14,-1.04,0.13,1.06
14.623,0.09,-1.05,0.08,1.05
14.633,0.04,-0.91,0.02,0.91
14.643,-0.03,-0.77,-0.07,0.77
14.653,-0.10,-0.66,-0.13,0.68
14.663,-0.14,-0.60,-0.17,0.64
14.673,-0.17,-0.57,-0.23,0.64
14.683,-0.27,-0.63,-0.25,0.73
14.694,-0.36,-0.68,-0.27,0.82
14.703,-0.43,-0.77,-0.29,0.93
14.713,-0.49,-0.89,-0.24,1.04
14.723,-0.59,-0.92,-0.18,1.11
14.734,-0.59,-0.89,-0.04,1.07
14.743,-0.47,-0.97,0.16,1.09
14.753,-0.27,-1.18,0.31,1.25
14.763,-0.05,-1.38,0.44,1.45
14.773,0.12,-1.52,0.51,1.60
14.783,0.19,-1.57,0.54,1.67
14.794,0.18,-1.59,0.57,1.70
14.803,0.23,-1.52,0.50,1.62
14.814,0.23,-1.42,0.39,1.49
14.823,0.10,-1.32,0.32,1.36
14.834,-0.05,-1.19,0.28,1.23
14.844,-0.08,-1.00,0.26,1.04
14.854,-0.05,-0.83,0.29,0.88
14.863,0.07,-0.71,0.31,0.77
14.874,0.34,-0.54,0.34,0.72
14.884,0.60,-0.32,0.38,0.78
14.894,0.82,-0.32,0.26,0.92
14.904,1.10,-0.54,0.21,1.24
14.914,1.49,-0.64,0.23,1.64
14.924,1.68,-0.47,0.15,1.75
14.934,1.57,-0.20,0.04,1.59
14.944,1.31,-0.07,-0.14,1.32
14.954,1.02,-0.10,-0.50,1.14
14.964,0.79,-0.23,-0.82,1.16
14.974,0.68,-0.17,-0.85,1.11
14.984,0.65,-0.01,-0.72,0.97
14.994,0.78,0.18,-0.78,1.12
15.004,0.84,0.32,-1.00,1.34
15.014,0.77,0.35,-1.12,1.41
15.024,0.54,0.29,-1.18,1.32
15.034,-0.03,0.23,-1.32,1.34
15.044,-0.63,0.38,-1.41,1.59
15.054,-0.98,0.69,-1.32,1.79
15.064,-1.14,1.08,-1.21,1.98
15.074,-1.17,1.47,-1.01,2.13
15.084,-1.04,1.75,-0.76,2.17
15.094,-0.68,1.88,-0.63,2.10
15.104,-0.24,1.85,-0.58,1.95
15.114,0.15,1.71,-0.54,1.80
15.124,0.39,1.45,-0.54,1.59
15.134,0.54,1.12,-0.55,1.36
15.144,0.62,0.77,-0.59,1.15
15.154,0.57,0.50,-0.50,0.90
15.164,0.46,0.26,-0.35,0.63
15.174,0.25,0.03,-0.39,0.47
15.184,0.21,-0.06,-0.49,0.54
15.194,0.26,0.00,-0.48,0.55
15.204,0.12,0.15,-0.50,0.54
15.214,-0.10,0.33,-0.52,0.62
15.224,-0.57,0.51,-0.42,0.88
15.234,-1.07,0.52,-0.37,1.24
15.244,-1.35,0.37,-0.38,1.45
15.254,-1.45,0.15,-0.34,1.50
15.264,-1.34,0.04,-0.23,1.36
15.274,-1.11,-0.00,-0.17,1.13
15.284,-0.74,0.02,-0.07,0.74
15.294,-0.37,0.10,-0.03,0.38
15.304,-0.02,0.20,-0.05,0.20
15.314,0.20,0.26,-0.09,0.33
15.324,0.25,0.27,-0.21,0.42
15.334,0.25,0.31,-0.33,0.51
15.344,0.14,0.33,-0.38,0.53
15.354,-0.05,0.32,-0.46,0.56
15.364,-0.27,0.24,-0.55,0.65
15.374,-0.45,0.21,-0.58,0.76
15.384,-0.60,0.28,-0.41,0.78
15.394,-0.71,0.37,-0.25,0.84
15.404,-0.77,0.52,-0.06,0.93
15.414,-0.83,0.65,0.09,1.06
15.424,-0.84,0.64,0.18,1.07
15.434,-0.87,0.30,0.16,0.93
15.444,-0.64,0.10,-0.03,0.65
15.454,-0.79,0.06,-0.17,0.81
15.464,-0.97,-0.27,-0.24,1.04
15.474,-1.06,-0.81,-0.38,1.39
15.484,-1.06,-1.14,-0.52,1.64
15.494,-1.10,-1.11,-0.58,1.66
15.504,-1.04,-0.71,-0.34,1.30
15.514,-1.01,-0.20,-0.12,1.04
15.524,-1.12,0.32,-0.08,1.17
15.534,-1.26,0.84,-0.05,1.51
15.544,-1.30,1.03,-0.12,1.66
15.554,-1.30,0.88,-0.20,1.58
15.564,-1.28,0.61,-0.29,1.45
15.574,-1.34,0.25,-0.31,1.40
15.584,-1.50,-0.13,-0.24,1.52
15.594,-1.73,-0.47,-0.26,1.81
15.604,-1.92,-0.67,-0.20,2.04
15.614,-2.04,-0.74,0.04,2.17
15.624,-1.93,-0.71,0.26,2.07
15.634,-1.49,-0.68,0.24,1.65
15.644,-0.80,-0.47,0.34,0.99
15.654,-0.08,-0.19,0.52,0.56
15.664,0.66,0.04,0.54,0.85
15.674,1.13,0.20,0.48,1.25
15.684,1.15,0.28,0.60,1.33
15.694,0.91,0.23,0.77,1.22
15.704,0.74,0.13,0.91,1.18
15.714,0.65,-0.00,1.04,1.23
15.724,0.71,-0.14,1.05,1.28
15.734,0.90,-0.29,1.03,1.40
15.744,0.96,-0.44,1.08,1.51
15.754,0.78,-0.60,1.07,1.45
15.764,0.37,-0.72,1.07,1.34
15.774,-0.15,-0.88,1.19,1.49
15.784,-0.59,-1.10,1.15,1.69
15.795,-0.84,-1.16,1.22,1.88
15.804,-1.02,-1.02,1.22,1.89
15.814,-1.11,-0.75,0.99,1.67
15.824,-1.19,-0.36,0.67,1.41
15.834,-1.37,0.07,0.37,1.42
15.844,-1.58,0.37,0.09,1.62
15.855,-1.73,0.47,-0.18,1.80
15.864,-1.80,0.47,-0.22,1.87
15.875,-1.87,0.34,-0.05,1.90
15.884,-1.83,0.07,-0.08,1.84
15.895,-1.73,-0.15,-0.16,1.74
15.904,-1.71,-0.24,-0.10,1.73
15.915,-1.87,-0.39,0.02,1.91
15.925,-2.07,-0.53,0.04,2.14
15.934,-2.14,-0.55,0.07,2.21
15.945,-2.28,-0.49,0.21,2.34
15.954,-2.54,-0.48,0.36,2.61
15.965,-2.77,-0.45,0.45,2.84
15.974,-2.82,-0.27,-0.00,2.84
15.985,-2.77,-0.01,-0.67,2.85
15.995,-2.22,0.14,-1.16,2.51
16.005,-1.08,0.70,-1.23,1.78
16.015,0.22,1.13,-2.49,2.74
16.025,1.96,1.60,-3.31,4.16
16.035,3.66,2.24,-2.95,5.21
16.045,5.35,2.60,-2.81,6.58
16.055,6.80,3.18,-3.42,8.25
16.065,7.13,3.78,-3.19,8.68
16.075,6.61,3.35,-2.61,7.85
16.085,5.71,2.44,-2.05,6.54
16.095,4.42,1.60,-1.40,4.90
16.105,2.80,0.93,-0.72,3.04
16.115,1.31,0.33,-0.30,1.39
16.125,0.46,-0.36,-0.26,0.64
16.135,0.33,-0.88,-0.58,1.11
16.145,0.80,-0.77,-0.93,1.45
16.155,1.53,-0.19,-1.27,2.00
16.165,1.94,0.54,-1.47,2.50
16.175,1.82,1.03,-1.43,2.54
16.185,1.42,1.07,-1.63,2.41
16.195,1.08,0.69,-2.04,2.41
16.205,1.07,0.27,-2.21,2.46
16.215,1.45,-0.19,-2.16,2.61
16.225,1.86,-0.62,-2.03,2.82
16.235,1.84,-0.89,-1.75,2.69
16.245,1.49,-0.89,-1.39,2.22
16.255,0.94,-0.76,-1.06,1.61
16.265,0.38,-0.48,-0.79,1.01
16.275,-0.07,-0.18,-0.69,0.72
16.285,-0.39,-0.06,-0.82,0.91
16.295,-0.54,-0.02,-0.98,1.12
16.305,-0.51,0.00,-1.05,1.17
16.315,-0.42,0.00,-1.00,1.08
16.325,-0.18,0.04,-0.88,0.90
16.335,0.19,0.19,-0.65,0.70
16.345,0.41,0.31,-0.38,0.64
16.355,0.47,0.30,-0.00,0.56
16.365,0.45,0.18,0.27,0.55
16.375,0.28,-0.00,0.44,0.52
16.385,-0.01,-0.15,0.48,0.50
16.395,-0.26,-0.23,0.44,0.56
16.405,-0.36,-0.22,0.35,0.55
16.415,-0.37,-0.14,0.30,0.50
16.425,-0.39,-0.06,0.34,0.52
16.435,-0.61,-0.08,0.53,0.81
16.445,-0.86,-0.18,0.72,1.13
16.455,-1.03,-0.43,0.80,1.38
16.465,-0.96,-0.89,0.82,1.54
16.475,-0.58,-1.50,0.77,1.78
16.485,-0.01,-2.02,0.61,2.11
16.495,0.41,-2.25,0.43,2.33
16.505,0.48,-2.04,0.26,2.11
16.515,0.15,-1.46,0.18,1.48
16.525,-0.48,-0.69,0.07,0.85
16.535,-1.09,0.01,-0.06,1.09
16.545,-1.50,0.52,-0.14,1.59
16.555,-1.68,0.78,-0.18,1.86
16.565,-1.58,0.68,-0.15,1.73
16.575,-1.21,0.25,-0.01,1.23
16.585,-0.64,-0.45,0.07,0.79
16.595,-0.17,-1.13,0.04,1.14
16.605,0.11,-1.55,0.01,1.55
16.615,0.28,-1.62,-0.05,1.64
16.625,0.01,-1.38,-0.02,1.38
16.635,-0.45,-0.96,-0.03,1.06
16.645,-0.87,-0.45,-0.05,0.98
16.655,-1.24,0.02,-0.16,1.25
16.665,-1.54,0.38,-0.43,1.64
16.675,-1.74,0.62,-0.76,2.00
16.685,-1.82,0.79,-0.90,2.18
16.695,-1.70,0.80,-0.77,2.03
16.705,-1.48,0.57,-0.67,1.72
16.715,-1.34,0.14,-0.50,1.44
16.725,-1.25,-0.43,-0.26,1.35
16.735,-1.06,-0.94,-0.13,1.42
16.745,-0.87,-1.20,-0.20,1.49
16.755,-1.05,-1.31,-0.40,1.73
16.765,-1.31,-1.31,-0.66,1.97
16.775,-1.28,-1.04,-0.90,1.88
16.785,-1.14,-0.65,-1.06,1.69
16.795,-0.91,-0.32,-1.10,1.46
16.805,-0.49,0.03,-0.99,1.11
16.815,0.03,0.27,-0.90,0.95
16.825,0.37,0.38,-0.91,1.05
16.835,0.37,0.32,-0.95,1.07
16.845,0.01,0.06,-0.92,0.92
16.855,-0.37,-0.29,-0.99,1.10
16.865,-0.35,-0.52,-0.92,1.11
16.875,-0.23,-0.79,-0.93,1.24
16.885,-0.22,-0.98,-0.98,1.40
16.895,-0.29,-0.94,-0.98,1.39
16.905,-0.38,-0.79,-0.82,1.20
16.915,-0.40,-0.65,-0.71,1.04
16.925,-0.37,-0.63,-0.62,0.96
16.935,-0.20,-0.77,-0.57,0.98
16.945,-0.10,-0.91,-0.46,1.03
16.955,-0.32,-1.09,-0.22,1.15
16.965,-0.44,-1.32,0.10,1.40
16.975,-0.52,-1.53,0.36,1.66
16.985,-0.74,-1.66,0.38,1.85
16.996,-1.15,-1.85,0.20,2.18
17.005,-1.35,-1.51,0.20,2.03
17.016,-1.15,-0.80,0.35,1.44
17.025,-0.65,-0.28,0.57,0.90
17.036,-0.84,-0.14,0.80,1.17
17.046,-0.62,-0.27,0.81,1.05
17.056,0.26,-0.43,0.70,0.86
17.065,1.59,-0.44,0.62,1.76
17.076,2.84,-0.31,0.19,2.87
17.086,3.47,0.22,-0.39,3.50
17.096,3.35,0.94,-0.89,3.58
17.106,2.77,1.79,-1.02,3.46
17.116,2.10,2.54,-1.04,3.46
17.126,1.68,3.14,-1.10,3.73
17.136,1.83,3.78,-0.70,4.26
17.146,2.55,3.91,0.27,4.68
17.156,3.29,3.36,0.51,4.73
17.166,3.58,2.43,0.33,4.34
17.176,3.11,1.29,0.35,3.39
17.186,2.31,0.19,0.58,2.39
17.196,1.75,-0.74,0.60,1.99
17.206,1.45,-1.29,0.44,1.99
17.216,1.35,-1.56,0.37,2.10
17.226,1.36,-1.67,0.28,2.18
17.236,1.43,-1.38,0.16,2.00
17.246,1.26,-0.72,-0.01,1.45
17.256,0.91,0.09,-0.21,0.94
17.266,0.56,0.78,-0.38,1.03
17.276,0.22,1.30,-0.56,1.43
17.286,-0.08,1.67,-0.59,1.78
17.296,-0.46,1.88,-0.45,1.99
17.306,-0.77,1.86,-0.31,2.04
17.316,-0.96,1.64,-0.22,1.91
17.326,-1.11,1.26,-0.14,1.69
17.336,-1.09,0.83,-0.14,1.38
17.346,-0.95,0.43,-0.15,1.05
17.356,-0.75,0.08,-0.26,0.80
17.366,-0.58,-0.13,-0.38,0.71
17.376,-0.46,-0.22,-0.52,0.73
17.386,-0.32,-0.21,-0.55,0.67
17.396,-0.23,-0.08,-0.51,0.56
17.406,-0.21,0.12,-0.44,0.50
17.416,-0.22,0.36,-0.32,0.53
17.426,-0.19,0.53,-0.22,0.61
17.436,-0.17,0.60,-0.06,0.62
17.446,-0.14,0.52,0.08,0.54
17.456,-0.16,0.45,0.16,0.51
17.466,-0.26,0.37,0.21,0.50
17.476,-0.44,0.25,0.22,0.55
17.486,-0.65,0.14,0.20,0.69
17.496,-0.78,0.09,0.15,0.80
17.506,-0.88,0.08,0.17,0.90
17.516,-1.01,0.07,0.18,1.03
17.526,-1.07,0.04,0.10,1.07
17.536,-1.12,0.11,0.06,1.13
17.546,-1.09,0.20,0.03,1.10
17.556,-1.01,0.29,0.05,1.05
17.566,-0.90,0.37,0.10,0.98
17.576,-0.81,0.33,0.13,0.89
17.586,-0.77,0.17,0.13,0.80
17.596,-0.76,-0.02,0.11,0.77
17.606,-0.81,-0.18,0.06,0.83
17.616,-0.96,-0.26,0.05,0.99
17.626,-1.19,-0.31,0.17,1.24
17.636,-1.42,-0.41,0.39,1.53
17.646,-1.59,-0.57,0.58,1.78
17.656,-1.63,-0.67,0.70,1.89
17.666,-1.56,-0.60,0.84,1.87
17.676,-1.39,-0.48,0.98,1.77
17.686,-1.13,-0.42,1.05,1.60
17.696,-0.85,-0.33,1.17,1.49
17.706,-0.80,-0.22,1.24,1.49
17.716,-0.92,-0.04,1.12,1.45
17.726,-1.13,0.06,0.90,1.44
17.736,-1.31,-0.04,0.47,1.39
17.746,-1.36,-0.12,-0.03,1.36
17.756,-1.31,-0.02,-0.34,1.35
17.766,-1.22,0.21,-0.54,1.35
17.776,-1.07,0.44,-0.67,1.34
17.786,-0.91,0.62,-0.62,1.27
17.796,-0.72,0.72,-0.60,1.19
17.806,-0.41,0.83,-0.67,1.14
17.816,-0.16,0.84,-0.65,1.07
17.826,-0.07,0.75,-0.79,1.09
17.836,-0.30,0.70,-0.80,1.10
17.846,-0.80,0.57,-0.74,1.23
17.856,-1.35,0.50,-0.76,1.63
17.866,-1.80,0.60,-0.66,2.01
17.876,-2.07,0.66,-0.24,2.19
17.886,-2.13,0.55,0.02,2.20
17.896,-2.10,0.40,-0.10,2.14
17.906,-1.82,0.46,-0.50,1.94
17.916,-1.52,0.63,-0.68,1.78
17.926,-1.59,0.42,-0.67,1.78
17.936,-1.66,0.04,-0.54,1.74
17.946,-1.53,-0.16,-0.17,1.54
17.956,-1.27,-0.20,0.24,1.31
17.966,-0.71,-0.00,0.57,0.91
17.976,0.12,0.23,0.72,0.76
17.986,1.29,-0.04,0.39,1.35
17.996,2.73,-0.54,-0.41,2.82
18.006,4.47,-1.01,-0.97,4.68
18.017,5.31,-1.08,-1.36,5.58
18.026,5.23,-0.43,-1.25,5.40
18.037,4.27,0.81,-0.81,4.42
18.046,2.13,1.93,-0.43,2.91
18.057,-0.65,2.29,-0.40,2.42
18.066,-2.63,2.16,-0.33,3.42
18.077,-2.74,1.34,-0.24,3.06
18.086,-0.08,-0.14,-0.15,0.22
18.097,4.44,-1.41,-0.11,4.66
18.107,8.92,-1.94,0.03,9.13
18.117,10.20,-1.69,-0.35,10.34
18.127,7.33,-1.02,-0.85,7.45
18.137,3.07,-0.02,-0.40,3.09
18.147,0.34,0.78,0.44,0.96
18.157,-1.33,1.26,1.04,2.10
18.167,-2.36,1.17,1.54,3.05
18.177,-2.67,0.34,1.72,3.19
18.187,-2.25,-0.96,1.56,2.90
18.197,-1.24,-2.04,1.03,2.60
18.207,0.10,-2.44,0.54,2.50
18.217,1.42,-2.26,0.30,2.69
18.227,2.38,-1.64,0.13,2.89
18.237,2.47,-0.89,-0.10,2.62
18.247,1.70,-0.28,-0.34,1.75
18.257,0.80,0.01,-0.45,0.92
18.267,0.04,0.01,-0.52,0.52
18.277,-0.52,0.00,-0.50,0.72
18.287,-0.82,0.08,-0.49,0.96
18.297,-0.73,0.24,-0.51,0.93
18.307,-0.45,0.42,-0.44,0.75
18.317,-0.13,0.48,-0.38,0.63
18.327,0.07,0.43,-0.28,0.52
18.337,0.08,0.25,-0.20,0.34
18.347,-0.09,0.01,-0.19,0.21
18.357,-0.34,-0.25,-0.24,0.48
18.367,-0.63,-0.45,-0.33,0.84
18.377,-0.88,-0.66,-0.40,1.17
18.387,-0.96,-0.86,-0.53,1.39
18.397,-0.81,-0.99,-0.63,1.42
18.407,-0.55,-1.11,-0.65,1.40
18.417,-0.32,-1.23,-0.57,1.40
18.427,-0.22,-1.32,-0.54,1.44
18.437,-0.29,-1.25,-0.48,1.37
18.447,-0.51,-1.02,-0.33,1.19
18.457,-0.74,-0.82,-0.24,1.13
18.467,-0.93,-0.56,-0.24,1.12
18.477,-1.19,-0.38,-0.34,1.30
18.487,-1.40,-0.21,-0.50,1.50
18.497,-1.52,-0.09,-0.54,1.61
18.507,-1.53,-0.08,-0.66,1.67
18.517,-1.55,-0.09,-0.85,1.78
18.527,-1.68,-0.15,-0.97,1.94
18.537,-1.88,-0.21,-0.85,2.07
18.547,-2.07,-0.36,-0.74,2.23
18.557,-2.16,-0.57,-0.85,2.39
18.567,-2.25,-0.81,-1.05,2.61
18.577,-2.29,-1.03,-0.97,2.69
18.587,-2.19,-1.28,-0.91,2.69
18.597,-1.90,-1.32,-0.94,2.50
18.607,-1.78,-0.97,-0.88,2.21
18.617,-1.62,-0.67,-0.74,1.91
18.627,-1.42,-0.71,-0.74,1.75
18.637,-1.33,-0.64,-1.00,1.78
18.647,-1.64,-0.44,-1.19,2.07
18.657,-2.07,-0.30,-1.17,2.39
18.667,-2.35,-0.22,-1.02,2.58
18.677,-2.45,-0.30,-1.08,2.69
18.687,-2.18,-0.49,-1.05,2.47
18.697,-1.68,-0.91,-0.89,2.10
18.707,-1.08,-1.65,-0.64,2.07
18.717,-0.51,-2.29,-0.50,2.39
18.727,-0.14,-2.44,-0.58,2.51
18.737,-0.05,-2.09,-0.75,2.22
18.747,-0.22,-1.23,-1.16,1.71
18.757,-0.74,-0.52,-1.66,1.89
18.767,-0.85,0.08,-1.50,1.73
18.777,-0.23,0.94,-0.89,1.32
18.787,0.71,1.40,-0.17,1.58
18.797,1.93,1.46,0.40,2.45
18.807,2.99,1.26,0.64,3.31
18.817,4.13,1.21,0.65,4.35
18.827,5.15,1.30,0.54,5.34
18.837,5.11,1.10,0.47,5.25
18.847,4.81,0.86,0.50,4.91
18.857,4.50,0.98,0.72,4.66
18.867,3.85,1.22,1.12,4.19
18.877,3.08,1.34,1.66,3.75
18.887,2.81,1.16,2.04,3.67
18.897,3.12,0.92,1.98,3.81
18.907,3.59,0.97,1.61,4.05
18.917,3.56,1.36,1.26,4.01
18.927,3.03,1.67,0.98,3.59
18.937,2.44,1.57,0.60,2.96
18.947,1.75,1.23,0.32,2.16
18.957,1.12,0.70,0.21,1.34
18.967,0.75,0.18,0.12,0.78
18.977,0.48,-0.23,0.17,0.56
18.987,0.16,-0.44,0.23,0.52
18.997,-0.19,-0.36,0.27,0.49
19.007,-0.57,-0.09,0.17,0.60
19.017,-0.94,0.38,0.06,1.02
19.027,-1.25,0.87,-0.10,1.53
19.037,-1.33,1.26,-0.33,1.86
19.047,-1.19,1.53,-0.48,1.99
19.057,-0.95,1.65,-0.67,2.02
19.067,-0.71,1.64,-0.84,1.98
19.077,-0.59,1.56,-0.92,1.90
19.087,-0.49,1.43,-0.92,1.77
19.097,-0.41,1.13,-0.87,1.48
19.107,-0.32,0.72,-0.83,1.14
19.117,-0.21,0.31,-0.79,0.88
19.128,-0.04,-0.01,-0.67,0.67
19.137,0.14,-0.20,-0.51,0.57
19.147,0.30,-0.26,-0.37,0.54
19.157,0.32,-0.34,-0.29,0.54
19.167,0.13,-0.35,-0.21,0.43
19.178,-0.06,-0.28,-0.11,0.30
19.187,-0.22,-0.16,-0.02,0.28
19.198,-0.39,-0.09,0.07,0.41
19.207,-0.53,-0.00,0.10,0.54
19.217,-0.65,0.04,0.12,0.66
19.228,-0.71,0.06,0.19,0.73
19.238,-0.71,0.08,0.27,0.76
19.247,-0.71,0.08,0.26,0.76
19.258,-0.74,0.12,0.23,0.78
19.268,-0.77,0.11,0.18,0.80
19.278,-0.78,0.07,0.15,0.80
19.288,-0.71,-0.03,0.21,0.74
19.298,-0.58,-0.17,0.29,0.67
19.308,-0.42,-0.30,0.33,0.61
19.318,-0.28,-0.36,0.38,0.60
19.328,-0.23,-0.36,0.46,0.63
19.338,-0.30,-0.38,0.58,0.76
19.348,-0.45,-0.40,0.65,0.89
19.358,-0.61,-0.45,0.61,0.97
19.368,-0.73,-0.43,0.51,0.99
19.378,-0.81,-0.38,0.41,0.98
19.388,-0.89,-0.30,0.42,1.03
19.398,-0.94,-0.27,0.41,1.06
19.408,-0.96,-0.24,0.37,1.06
19.418,-0.95,-0.28,0.24,1.02
19.428,-0.93,-0.35,0.08,1.00
19.438,-0.95,-0.34,0.07,1.01
19.448,-0.96,-0.23,-0.01,0.99
19.458,-1.07,-0.01,-0.22,1.09
19.468,-1.39,0.23,-0.31,1.44
19.478,-1.72,0.34,-0.31,1.78
19.488,-1.95,0.31,-0.32,2.00
19.498,-2.05,0.27,-0.45,2.12
19.508,-1.93,0.29,-0.74,2.09
19.518,-1.51,0.41,-0.70,1.71
19.528,-0.91,0.62,-0.57,1.23
19.538,-0.50,0.71,-0.42,0.97
19.548,-0.39,0.71,-0.40,0.91
19.558,-0.54,0.62,-0.51,0.97
19.568,-0.97,0.47,-0.59,1.23
19.578,-1.48,0.23,-0.68,1.65
19.588,-2.05,0.06,-0.64,2.15
19.598,-2.55,-0.07,-0.57,2.62
19.608,-2.81,-0.16,-0.65,2.88
19.618,-2.70,-0.13,-0.47,2.74
19.628,-2.21,0.10,-0.23,2.22
19.638,-1.49,0.51,-0.22,1.59
19.648,-1.02,0.94,-0.39,1.44
19.658,-0.80,1.42,-0.56,1.72
19.668,-0.76,1.81,-0.38,2.00
19.678,-0.93,1.75,-0.20,1.99
19.688,-1.27,1.49,-0.05,1.96
19.698,-1.66,1.13,0.42,2.05
19.708,-1.75,0.60,0.71,1.98
19.718,-1.16,0.43,1.08,1.65
19.728,-0.04,0.29,1.53,1.56
19.738,1.34,-0.13,1.45,1.98
19.748,2.47,-0.49,0.98,2.70
19.758,3.35,-0.90,0.21,3.47
19.768,4.04,-1.12,-0.38,4.21
19.778,4.29,-0.90,-0.58,4.42
19.788,3.63,-0.01,-0.83,3.72
19.798,2.08,1.40,-0.77,2.62
19.808,0.40,2.45,-0.99,2.67
19.818,-0.83,2.83,-1.34,3.24
19.828,-1.23,2.61,-1.62,3.31
19.838,-0.41,1.90,-1.62,2.53
19.848,1.49,0.97,-1.16,2.12
19.858,4.36,-0.09,-0.76,4.42
19.868,7.41,-0.87,-0.77,7.50
19.878,9.34,-1.09,-0.91,9.45
19.888,8.59,-0.88,-0.87,8.68
19.898,4.67,-0.36,-0.53,4.71
19.908,0.88,0.25,0.09,0.92
19.918,-1.11,0.61,0.60,1.40
19.928,-1.85,0.76,0.98,2.22
19.938,-1.52,0.65,1.26,2.08
19.948,-0.53,0.16,1.24,1.36
19.958,0.60,-0.51,0.96,1.25
19.968,1.32,-1.20,0.55,1.86
19.978,1.68,-1.58,0.15,2.31
19.988,1.65,-1.70,-0.29,2.38
19.998,1.19,-1.57,-0.75,2.11
20.008,0.53,-1.20,-1.08,1.70
20.018,0.00,-0.69,-1.34,1.51
20.028,-0.26,-0.24,-1.52,1.56
20.038,-0.37,-0.07,-1.47,1.52
20.048,-0.36,-0.17,-1.32,1.38
20.058,-0.36,-0.38,-1.08,1.20
20.068,-0.45,-0.67,-0.80,1.13
20.078,-0.56,-0.95,-0.55,1.23
20.088,-0.51,-1.17,-0.39,1.33
20.098,-0.43,-1.32,-0.25,1.41
20.108,-0.35,-1.46,-0.25,1.52
20.118,-0.29,-1.52,-0.33,1.59
20.128,-0.31,-1.38,-0.46,1.49
20.138,-0.31,-1.09,-0.57,1.26
20.148,-0.25,-0.77,-0.56,0.99
20.158,-0.05,-0.59,-0.52,0.78
20.168,0.20,-0.44,-0.44,0.65
20.179,0.36,-0.32,-0.25,0.54
20.188,0.25,-0.32,-0.01,0.40
20.198,0.01,-0.40,0.22,0.45
20.208,-0.24,-0.52,0.35,0.67
20.219,-0.41,-0.70,0.51,0.96
20.228,-0.52,-0.85,0.54,1.14
20.238,-0.60,-0.93,0.43,1.18
20.249,-0.60,-0.93,0.24,1.14
20.259,-0.53,-0.87,0.03,1.02
20.268,-0.42,-0.73,-0.15,0.86
20.279,-0.36,-0.55,-0.23,0.70
20.288,-0.35,-0.49,-0.19,0.63
20.299,-0.39,-0.51,-0.19,0.67
20.309,-0.53,-0.53,-0.21,0.78
20.318,-0.82,-0.65,-0.22,1.07
20.329,-1.00,-0.74,-0.23,1.26
20.339,-1.06,-0.78,-0.33,1.35
20.349,-1.11,-0.73,-0.49,1.42
20.359,-1.23,-0.64,-0.67,1.53
20.369,-1.43,-0.50,-0.86,1.74
20.379,-1.70,-0.42,-0.93,1.98
20.389,-1.77,-0.35,-1.08,2.11
20.399,-1.70,-0.23,-1.27,2.14
20.409,-1.61,-0.24,-1.27,2.07
20.419,-1.40,-0.32,-1.24,1.90
20.429,-1.28,-0.36,-1.12,1.74
20.439,-1.30,-0.34,-0.83,1.58
20.449,-1.45,-0.45,-0.70,1.67
20.459,-1.66,-0.57,-0.78,1.92
20.469,-2.01,-0.62,-0.69,2.21
20.479,-2.34,-0.68,-0.66,2.52
20.489,-2.51,-0.68,-0.88,2.74
20.499,-2.31,-0.62,-1.03,2.61
20.509,-1.69,-0.57,-1.08,2.08
20.519,-1.01,-0.58,-0.99,1.53
20.529,-0.45,-0.58,-0.76,1.05
20.539,-0.13,-0.58,-0.52,0.79
20.549,-0.00,-0.77,-0.36,0.85
20.559,0.09,-1.11,-0.19,1.13
20.569,0.25,-1.51,-0.04,1.53
20.579,0.28,-1.86,0.08,1.88
20.589,-0.02,-2.01,0.17,2.02
20.599,-0.53,-1.92,0.08,1.99
20.609,-1.02,-1.63,-0.07,1.92
20.619,-1.35,-1.36,-0.16,1.92
20.629,-1.40,-1.17,-0.22,1.84
20.639,-1.26,-0.99,-0.28,1.62
20.649,-1.04,-0.83,-0.25,1.35
20.659,-0.70,-0.72,0.08,1.00
20.669,-0.50,-0.85,0.17,1.00
20.679,-0.29,-0.91,0.09,0.96
20.689,-0.13,-0.59,-0.08,0.61
20.699,0.04,0.01,-0.03,0.05
20.709,0.51,0.67,0.16,0.86
20.719,1.35,1.23,0.18,1.84
20.729,2.44,1.59,-0.05,2.92
20.739,3.32,1.42,-0.15,3.61
20.749,4.33,0.85,-0.06,4.41
20.759,5.28,0.38,-0.14,5.30
20.769,5.08,0.28,-0.39,5.10
20.779,4.09,0.67,-0.39,4.16
20.789,2.91,1.10,-0.23,3.12
20.799,2.12,1.70,0.26,2.72
20.809,1.89,2.40,0.94,3.20
20.819,2.28,2.56,1.06,3.59
20.829,3.06,2.15,0.62,3.79
20.839,3.94,1.77,0.09,4.32
20.849,3.99,1.61,-0.32,4.32
20.859,3.11,1.43,-0.42,3.45
20.869,1.91,1.02,-0.48,2.22
20.879,0.96,0.58,-0.49,1.22
20.889,0.26,0.36,-0.13,0.46
20.899,-0.23,0.25,0.18,0.39
20.909,-0.55,0.31,0.35,0.72
20.919,-0.72,0.41,0.36,0.90
20.929,-0.55,0.48,0.29,0.79
20.939,-0.05,0.32,0.31,0.45
20.949,0.55,0.04,0.29,0.63
20.959,0.84,-0.15,0.32,0.91
20.969,0.68,-0.14,0.26,0.74
20.979,0.24,-0.00,0.11,0.27
20.989,-0.30,0.18,-0.17,0.39
20.999,-0.75,0.36,-0.48,0.96
21.009,-0.99,0.57,-0.79,1.39
21.019,-1.11,0.83,-0.93,1.67
21.029,-1.04,1.10,-0.92,1.77
21.039,-0.80,1.25,-0.84,1.70
21.049,-0.52,1.23,-0.69,1.50
21.059,-0.22,1.02,-0.48,1.15
21.069,-0.05,0.73,-0.22,0.76
21.079,-0.06,0.45,-0.04,0.46
21.089,-0.34,0.24,0.14,0.44
21.099,-0.64,0.13,0.32,0.73
21.109,-0.77,0.07,0.38,0.86
21.119,-0.72,0.06,0.37,0.81
21.129,-0.60,0.01,0.31,0.67
21.139,-0.38,-0.08,0.23,0.45
21.149,-0.22,-0.18,0.19,0.34
21.159,-0.15,-0.27,0.17,0.35
21.169,-0.17,-0.36,0.18,0.44
21.179,-0.33,-0.47,0.17,0.60
21.189,-0.52,-0.56,0.14,0.78
21.199,-0.72,-0.59,0.08,0.94
21.209,-0.83,-0.56,0.07,1.00
21.220,-0.76,-0.42,0.18,0.89
21.229,-0.58,-0.24,0.29,0.69
21.239,-0.38,-0.10,0.40,0.56
21.249,-0.23,-0.06,0.49,0.55
21.260,-0.09,-0.11,0.47,0.49
21.269,-0.03,-0.18,0.43,0.47
21.280,-0.08,-0.27,0.38,0.48
21.289,-0.20,-0.37,0.34,0.54
21.300,-0.50,-0.39,0.28,0.70
21.309,-0.96,-0.34,0.18,1.03
21.320,-1.52,-0.21,-0.05,1.54
21.329,-1.86,-0.00,-0.23,1.87
21.340,-1.89,0.26,-0.28,1.92
21.349,-1.64,0.46,-0.28,1.73
21.360,-1.30,0.56,-0.17,1.43
21.369,-1.10,0.58,-0.02,1.24
21.380,-1.04,0.46,0.12,1.14
21.389,-1.08,0.23,0.21,1.13
21.400,-1.24,-0.03,0.22,1.26
21.409,-1.43,-0.25,0.15,1.46
21.419,-1.57,-0.39,-0.02,1.62
21.430,-1.61,-0.46,-0.16,1.68
21.440,-1.55,-0.47,-0.07,1.63
21.450,-1.29,-0.46,0.10,1.37
21.460,-0.94,-0.40,0.29,1.07
21.470,-0.63,-0.23,0.41,0.79
21.480,-0.43,-0.04,0.49,0.65
21.490,-0.39,0.14,0.44,0.60
21.500,-0.47,0.28,0.37,0.66
21.510,-0.62,0.20,0.33,0.73
21.520,-0.72,0.04,0.23,0.76
21.530,-0.85,-0.00,0.20,0.87
21.540,-1.05,0.00,0.32,1.10
21.550,-1.25,0.09,0.44,1.33
21.560,-1.29,0.34,0.53,1.44
21.570,-1.23,0.69,0.44,1.48
21.580,-1.19,1.00,0.20,1.57
21.590,-1.13,1.22,-0.12,1.67
21.600,-1.13,1.23,-0.48,1.74
21.610,-1.15,1.10,-0.75,1.75
21.620,-1.34,0.66,-0.88,1.73
21.630,-1.60,0.02,-0.76,1.77
21.640,-1.82,-0.40,-0.31,1.89
21.650,-1.93,-0.34,0.25,1.97
21.660,-2.12,-0.04,0.93,2.31
21.670,-2.42,0.13,1.30,2.75
21.680,-2.42,0.10,0.96,2.61
21.690,-2.19,0.30,0.68,2.32
21.700,-2.13,0.28,0.58,2.22
21.710,-1.57,-0.48,-0.32,1.67
21.720,-0.20,-1.08,-1.07,1.53
21.730,1.27,-1.05,-1.50,2.23
21.740,3.04,-0.49,-1.40,3.38
21.750,4.16,0.47,-1.97,4.63
21.760,3.71,1.73,-2.32,4.71
21.770,3.07,2.75,-2.40,4.77
21.780,2.83,3.21,-2.89,5.17
21.790,2.13,3.27,-3.23,5.06
21.800,1.08,2.87,-3.17,4.41
21.810,0.52,2.01,-2.81,3.49
21.820,1.35,1.24,-2.16,2.83
21.830,3.58,0.51,-1.20,3.81
21.840,6.84,-0.35,-0.70,6.88
21.850,9.84,-0.95,-0.50,9.90
21.860,10.40,-1.13,-0.18,10.46
21.870,6.80,-0.54,-0.10,6.82
21.880,1.74,0.43,0.34,1.83
21.890,-1.18,0.85,0.92,1.72
21.900,-2.58,0.65,1.19,2.92
21.910,-2.71,0.32,1.29,3.02
21.920,-1.99,-0.19,1.40,2.44
21.930,-0.71,-0.93,1.47,1.88
21.940,0.93,-1.75,1.38,2.42
21.950,2.34,-2.40,0.98,3.49
21.960,3.04,-2.56,0.55,4.01
21.970,2.83,-2.14,0.23,3.56
21.980,1.80,-1.44,-0.04,2.31
21.990,0.73,-0.88,-0.40,1.21
22.000,-0.01,-0.50,-0.71,0.87
22.010,-0.60,-0.15,-0.91,1.10
22.020,-0.93,0.18,-1.02,1.39
22.030,-1.05,0.48,-1.02,1.54
22.040,-0.91,0.69,-1.00,1.52
22.050,-0.76,0.73,-0.89,1.38
22.060,-0.51,0.63,-0.79,1.13
22.070,-0.28,0.45,-0.71,0.89
22.080,-0.16,0.22,-0.67,0.72
22.090,-0.23,-0.01,-0.68,0.72
22.100,-0.38,-0.18,-0.71,0.82
22.110,-0.50,-0.25,-0.73,0.92
22.120,-0.52,-0.27,-0.68,0.90
22.130,-0.36,-0.30,-0.60,0.76
22.140,-0.18,-0.33,-0.53,0.65
22.150,-0.01,-0.38,-0.46,0.59
22.160,0.11,-0.42,-0.36,0.56
22.170,0.14,-0.43,-0.27,0.53
22.180,0.11,-0.45,-0.22,0.51
22.190,-0.06,-0.48,-0.24,0.54
22.200,-0.22,-0.52,-0.29,0.63
22.210,-0.33,-0.51,-0.29,0.67
22.220,-0.36,-0.43,-0.27,0.62
22.230,-0.42,-0.32,-0.19,0.56
22.240,-0.48,-0.22,-0.11,0.54
22.250,-0.51,-0.20,-0.08,0.55
22.260,-0.55,-0.27,-0.02,0.62
22.270,-0.56,-0.29,0.04,0.63
22.280,-0.58,-0.30,0.13,0.66
22.290,-0.48,-0.39,0.07,0.62
22.300,-0.29,-0.57,0.03,0.64
22.310,-0.09,-0.69,0.08,0.70
22.320,-0.01,-0.72,0.10,0.73
22.330,-0.20,-0.65,0.08,0.69
22.340,-0.59,-0.55,0.01,0.80
22.350,-1.00,-0.51,-0.12,1.13
22.360,-1.35,-0.51,-0.27,1.47
22.370,-1.58,-0.53,-0.29,1.69
22.380,-1.64,-0.56,-0.29,1.76
22.390,-1.62,-0.58,-0.28,1.74
22.400,-1.59,-0.62,-0.38,1.75
22.410,-1.55,-0.63,-0.49,1.74
22.421,-1.50,-0.61,-0.60,1.73
22.430,-1.49,-0.55,-0.70,1.73
22.441,-1.59,-0.39,-0.97,1.90
22.450,-1.90,-0.16,-1.31,2.31
22.460,-2.44,0.13,-1.45,2.84
22.470,-2.97,0.38,-1.35,3.29
22.481,-3.32,0.48,-1.01,3.50
22.490,-3.54,0.21,-0.78,3.63
22.501,-3.32,-0.46,-0.68,3.42
22.510,-2.74,-1.09,-0.59,3.00
22.521,-1.77,-1.37,-0.49,2.29
22.530,-1.00,-1.31,-0.51,1.73
22.540,-0.63,-1.03,-0.42,1.28
22.551,-0.36,-0.62,-0.43,0.84
22.561,-0.09,-0.24,-0.25,0.36
22.571,0.24,-0.11,0.13,0.30
22.581,0.33,-0.16,0.27,0.46
22.591,0.07,-0.36,0.20,0.42
22.601,-0.13,-0.66,0.24,0.72
22.611,-0.19,-0.92,0.13,0.95
22.621,-0.51,-0.97,-0.02,1.10
22.631,-0.90,-0.83,-0.12,1.23
22.641,-1.24,-0.65,-0.35,1.45
22.651,-1.50,-0.44,-0.44,1.62
22.661,-1.50,-0.33,-0.22,1.55
22.671,-1.05,-0.66,-0.29,1.28
22.681,0.09,-1.06,-0.32,1.11
22.691,1.36,-1.30,-0.32,1.91
22.701,1.99,-1.49,-0.49,2.53
22.711,2.16,-1.33,-0.67,2.62
22.721,1.94,-0.64,-1.03,2.29
22.731,1.50,0.47,-1.15,1.94
22.741,1.29,1.46,-0.89,2.14
22.751,1.55,1.87,-0.48,2.47
22.761,2.28,1.34,-0.13,2.65
22.771,3.34,0.18,0.14,3.34
22.781,3.93,-0.86,0.06,4.02
22.791,3.37,-1.11,-0.18,3.55
22.801,2.04,-0.25,-0.14,2.06
22.811,0.60,1.11,0.26,1.29
22.821,-0.24,2.39,0.86,2.55
22.831,0.09,3.34,1.07,3.51
22.841,1.61,3.47,0.72,3.89
22.851,3.95,2.79,0.14,4.84
22.861,5.42,1.98,0.04,5.77
22.871,5.09,1.19,0.01,5.22
22.881,3.71,0.50,0.06,3.74
22.891,2.31,-0.11,0.08,2.32
22.901,1.20,-0.79,-0.01,1.44
22.911,0.56,-1.37,0.14,1.48
22.921,0.29,-1.43,0.39,1.51
22.931,0.40,-0.85,0.80,1.23
22.941,0.66,0.03,1.12,1.30
22.951,0.89,0.73,1.28,1.73
22.961,1.11,1.14,1.32,2.06
22.971,1.18,1.32,1.29,2.19
22.981,1.10,1.33,1.09,2.04
22.991,0.88,1.22,0.75,1.68
23.001,0.47,0.92,0.34,1.09
23.011,-0.01,0.54,-0.10,0.55
23.021,-0.48,0.19,-0.41,0.66
23.031,-0.82,-0.05,-0.66,1.05
23.041,-1.05,-0.13,-0.79,1.32
23.051,-1.12,0.02,-0.88,1.42
23.061,-1.02,0.29,-0.90,1.39
23.071,-0.81,0.59,-0.86,1.32
23.081,-0.60,0.82,-0.76,1.27
23.091,-0.47,0.93,-0.67,1.24
23.101,-0.49,0.97,-0.58,1.23
23.111,-0.65,0.93,-0.45,1.22
23.121,-0.84,0.88,-0.29,1.25
23.131,-0.96,0.75,-0.19,1.23
23.141,-0.99,0.60,-0.16,1.17
23.151,-0.91,0.48,-0.19,1.05
23.161,-0.83,0.33,-0.19,0.91
23.171,-0.80,0.21,-0.26,0.87
23.181,-0.81,0.10,-0.31,0.87
23.191,-0.87,0.05,-0.32,0.93
23.201,-0.99,0.02,-0.25,1.02
23.211,-1.02,-0.05,-0.14,1.03
23.221,-0.99,-0.16,-0.03,1.01
23.231,-0.88,-0.26,0.08,0.92
23.241,-0.75,-0.34,0.21,0.85
23.251,-0.65,-0.38,0.28,0.80
23.261,-0.66,-0.33,0.37,0.82
23.271,-0.73,-0.35,0.51,0.96
23.281,-0.72,-0.48,0.70,1.12
23.291,-0.63,-0.61,0.82,1.20
23.301,-0.53,-0.79,0.84,1.27
23.311,-0.45,-0.88,0.79,1.27
23.321,-0.43,-0.86,0.80,1.25
23.331,-0.45,-0.76,0.78,1.17
23.341,-0.49,-0.58,0.75,1.07
23.351,-0.48,-0.47,0.71,0.98
23.361,-0.45,-0.38,0.64,0.88
23.371,-0.54,-0.25,0.52,0.79
23.381,-0.73,-0.09,0.41,0.84
23.391,-1.01,0.05,0.35,1.07
23.401,-1.36,0.07,0.35,1.41
23.411,-1.68,0.04,0.29,1.70
23.421,-1.83,0.01,0.26,1.85
23.431,-1.81,0.09,0.19,1.82
23.441,-1.64,0.14,0.00,1.65
23.451,-1.45,0.14,-0.22,1.47
23.461,-1.21,0.16,-0.21,1.24
23.471,-0.92,0.19,-0.07,0.95
23.481,-0.64,0.25,0.03,0.69
23.491,-0.51,0.26,0.07,0.58
23.501,-0.68,0.17,0.14,0.72
23.512,-0.97,0.11,0.15,0.99
23.521,-1.28,0.17,0.09,1.29
23.532,-1.58,0.35,-0.09,1.62
23.541,-1.82,0.53,-0.14,1.90
23.551,-1.89,0.52,-0.14,1.96
23.561,-1.81,0.37,-0.19,1.85
23.571,-1.59,0.38,-0.35,1.67
23.582,-1.21,0.56,-0.54,1.44
23.591,-1.01,0.73,-0.73,1.45
23.601,-1.07,0.78,-0.95,1.63
23.611,-1.38,0.80,-1.07,1.92
23.622,-1.95,0.66,-0.75,2.19
23.631,-2.38,0.16,-0.35,2.41
23.642,-2.36,-0.21,0.07,2.37
23.652,-2.08,-0.23,0.46,2.14
23.661,-1.70,0.03,0.57,1.79
23.671,-1.39,0.34,0.52,1.52
23.682,-1.25,0.32,0.07,1.29
23.692,-1.29,0.33,-0.42,1.40
23.702,-1.53,0.31,-0.72,1.72
23.712,-1.10,-0.13,-1.01,1.50
23.722,-0.01,-0.36,-1.21,1.27
23.732,1.56,-0.15,-1.74,2.34
23.742,3.23,0.60,-1.81,3.75
23.752,4.10,1.23,-1.76,4.63
23.762,4.43,1.81,-1.58,5.04
23.772,4.13,2.48,-1.04,4.92
23.782,3.57,2.58,-0.47,4.43
23.792,2.01,2.25,0.04,3.02
23.802,0.20,1.45,0.82,1.68
23.812,0.80,0.10,0.39,0.90
23.822,4.65,-1.18,-0.37,4.81
23.832,10.07,-1.90,0.78,10.27
23.842,11.51,-2.19,0.79,11.74
23.852,7.92,-2.43,1.15,8.36
23.862,3.53,-2.07,1.57,4.38
23.872,0.73,-0.91,1.94,2.27
23.882,-0.93,0.23,2.16,2.36
23.892,-1.22,1.28,1.99,2.66
23.902,-0.79,1.86,1.47,2.50
23.912,-0.44,1.99,0.71,2.16
23.922,-0.19,1.95,0.04,1.96
23.932,-0.05,1.67,-0.54,1.75
23.942,0.13,1.12,-1.07,1.56
23.952,0.47,0.58,-1.38,1.57
23.962,0.78,0.20,-1.51,1.71
23.972,0.73,-0.09,-1.57,1.73
23.982,0.34,-0.30,-1.55,1.62
23.992,-0.23,-0.40,-1.38,1.45
24.002,-0.74,-0.49,-1.11,1.42
24.012,-1.02,-0.56,-0.94,1.50
24.022,-1.00,-0.62,-0.84,1.45
24.032,-0.78,-0.65,-0.57,1.16
24.042,-0.30,-0.72,-0.31,0.84
24.052,0.06,-0.78,-0.11,0.79
24.062,0.19,-0.79,0.03,0.82
24.072,0.15,-0.81,0.04,0.82
24.082,-0.00,-0.86,-0.08,0.87
24.092,-0.29,-0.94,-0.26,1.02
24.102,-0.48,-1.02,-0.44,1.21
24.112,-0.54,-0.94,-0.57,1.22
24.122,-0.43,-0.72,-0.61,1.04
24.132,-0.21,-0.49,-0.60,0.80
24.142,-0.03,-0.28,-0.57,0.63
24.152,0.19,-0.09,-0.54,0.58
24.162,0.30,0.05,-0.52,0.60
24.172,0.26,0.17,-0.51,0.60
24.182,0.10,0.26,-0.47,0.54
24.192,-0.13,0.25,-0.42,0.51
24.202,-0.28,0.16,-0.38,0.50
24.212,-0.36,-0.01,-0.37,0.51
24.222,-0.35,-0.21,-0.36,0.55
24.232,-0.26,-0.38,-0.33,0.56
24.242,-0.14,-0.53,-0.26,0.61
24.252,0.03,-0.60,-0.20,0.64
24.262,0.10,-0.59,-0.21,0.64
24.272,0.08,-0.51,-0.22,0.56
24.282,0.02,-0.37,-0.27,0.46
24.292,-0.10,-0.23,-0.31,0.39
24.302,-0.22,-0.10,-0.36,0.43
24.312,-0.32,0.03,-0.46,0.56
24.322,-0.38,0.13,-0.51,0.65
24.332,-0.39,0.22,-0.51,0.68
24.342,-0.41,0.24,-0.49,0.68
24.352,-0.42,0.18,-0.49,0.67
24.362,-0.52,0.13,-0.47,0.71
24.372,-0.67,0.05,-0.46,0.81
24.382,-0.86,-0.07,-0.50,0.99
24.392,-1.14,-0.23,-0.59,1.30
24.402,-1.52,-0.32,-0.80,1.75
24.412,-1.96,-0.31,-1.04,2.24
24.422,-2.43,-0.31,-1.15,2.70
24.432,-2.76,-0.34,-1.20,3.03
24.442,-2.78,-0.31,-1.12,3.01
24.452,-2.36,-0.38,-0.76,2.51
24.462,-1.83,-0.75,-0.38,2.01
24.472,-1.35,-1.14,-0.10,1.77
24.482,-1.07,-1.44,0.09,1.80
24.492,-1.01,-1.62,0.12,1.91
24.502,-1.17,-1.64,-0.09,2.02
24.512,-1.57,-1.38,-0.36,2.12
24.522,-2.21,-1.00,-0.52,2.48
24.532,-2.85,-0.58,-0.59,2.97
24.542,-3.08,-0.29,-0.62,3.15
24.552,-2.71,-0.25,-0.80,2.84
24.562,-1.87,-0.34,-0.77,2.05
24.572,-1.11,-0.38,-0.67,1.35
24.582,-1.01,-0.26,-0.81,1.32
24.592,-1.52,-0.06,-0.89,1.76
24.602,-2.08,-0.10,-0.99,2.31
24.612,-2.22,-0.24,-1.13,2.50
24.622,-1.99,-0.30,-1.16,2.32
24.632,-1.58,-0.25,-1.11,1.95
24.642,-1.21,-0.24,-1.13,1.67
24.652,-0.97,-0.37,-1.04,1.47
24.662,-0.75,-0.67,-0.94,1.38
24.672,-0.31,-0.85,-0.75,1.18
24.683,0.00,-0.91,-0.79,1.20
24.692,-0.01,-1.11,-1.12,1.58
24.702,0.27,-0.52,-0.96,1.12
24.712,0.68,0.20,-0.51,0.87
24.723,1.40,0.53,0.08,1.50
24.732,2.54,0.64,0.59,2.69
24.742,3.68,0.65,0.85,3.83
24.752,4.65,0.52,1.22,4.83
24.763,5.21,-0.07,1.45,5.41
24.773,5.37,-0.69,1.22,5.55
24.783,4.94,-0.53,0.98,5.06
24.792,4.20,0.44,1.00,4.34
24.803,3.45,1.71,1.17,4.02
24.813,2.91,2.59,1.32,4.11
24.823,2.85,2.62,0.93,3.98
24.833,3.38,2.34,0.22,4.12
24.843,3.77,1.94,-0.16,4.24
24.853,3.44,1.21,0.04,3.65
24.863,2.76,0.47,0.18,2.81
24.873,1.79,-0.06,0.29,1.81
24.883,0.92,-0.42,0.37,1.08
24.893,0.23,-0.63,0.64,0.93
24.903,-0.26,-0.76,0.85,1.18
24.913,-0.37,-0.68,1.09,1.34
24.923,-0.17,-0.47,1.18,1.28
24.933,0.24,-0.17,1.14,1.18
24.943,0.66,0.05,1.09,1.27
24.953,0.89,0.09,0.96,1.31
24.963,0.76,0.12,0.81,1.12
24.973,0.33,0.11,0.62,0.71
24.983,-0.18,0.15,0.36,0.43
24.993,-0.62,0.27,0.07,0.68
25.003,-0.94,0.37,-0.17,1.02
25.013,-1.05,0.39,-0.36,1.18
25.023,-1.03,0.41,-0.46,1.20
25.033,-0.98,0.50,-0.58,1.24
25.043,-0.88,0.70,-0.68,1.32
25.053,-0.77,0.93,-0.71,1.40
25.063,-0.69,1.10,-0.68,1.46
25.073,-0.61,1.12,-0.64,1.43
25.083,-0.55,1.08,-0.57,1.34
25.093,-0.52,0.95,-0.42,1.16
25.103,-0.44,0.70,-0.25,0.86
25.113,-0.33,0.43,-0.11,0.55
25.123,-0.26,0.25,0.02,0.36
25.133,-0.21,0.12,0.09,0.26
25.143,-0.23,0.07,0.11,0.26
25.153,-0.24,0.07,0.11,0.27
25.163,-0.26,0.03,0.10,0.28
25.173,-0.29,0.01,0.05,0.30
25.183,-0.32,0.01,0.06,0.33
25.193,-0.37,-0.01,0.09,0.38
25.203,-0.40,0.01,0.14,0.42
25.213,-0.46,0.13,0.16,0.50
25.223,-0.55,0.23,0.20,0.63
25.233,-0.52,0.30,0.23,0.65
25.243,-0.43,0.28,0.28,0.58
25.253,-0.36,0.24,0.41,0.60
25.263,-0.35,0.15,0.49,0.62
25.273,-0.41,0.06,0.55,0.69
25.283,-0.53,-0.01,0.60,0.80
25.293,-0.61,-0.08,0.58,0.85
25.303,-0.62,-0.14,0.50,0.81
25.313,-0.63,-0.16,0.40,0.76
25.323,-0.63,-0.18,0.27,0.71
25.333,-0.63,-0.10,0.17,0.66
25.343,-0.71,-0.01,0.10,0.71
25.353,-0.78,0.06,0.04,0.78
25.363,-0.90,0.11,-0.02,0.90
25.373,-1.02,0.19,-0.04,1.04
25.383,-1.08,0.29,-0.01,1.12
25.393,-1.09,0.38,-0.00,1.15
25.403,-1.10,0.47,0.02,1.20
25.413,-1.25,0.44,-0.04,1.32
25.423,-1.43,0.38,-0.11,1.48
25.433,-1.52,0.30,-0.02,1.55
25.443,-1.42,0.20,-0.02,1.44
25.453,-1.35,0.04,-0.04,1.35
25.463,-1.37,-0.06,0.05,1.38
25.473,-1.54,-0.13,0.05,1.54
25.483,-1.57,-0.20,-0.24,1.60
25.493,-1.52,-0.16,-0.25,1.55
25.503,-1.38,-0.19,-0.09,1.39
25.513,-1.16,-0.22,-0.04,1.18
25.523,-1.12,-0.23,0.01,1.14
25.533,-1.24,-0.21,0.12,1.27
25.543,-1.51,-0.11,0.22,1.53
25.553,-1.89,-0.09,0.34,1.93
25.563,-2.30,-0.24,0.35,2.34
25.573,-2.52,-0.49,0.22,2.57
25.583,-2.54,-0.73,0.01,2.65
25.593,-2.40,-0.91,-0.06,2.56
25.603,-2.13,-1.00,-0.16,2.36
25.613,-1.83,-0.99,-0.24,2.09
25.623,-1.67,-0.90,-0.16,1.90
25.633,-1.63,-0.76,-0.09,1.80
25.643,-1.61,-0.57,-0.09,1.71
25.653,-1.58,-0.35,-0.14,1.63
25.663,-1.63,-0.16,-0.20,1.65
25.673,-1.78,-0.04,-0.35,1.81
25.683,-1.93,0.10,-0.33,1.96
25.693,-2.02,0.12,-0.03,2.02
25.704,-1.71,0.13,0.05,1.72
25.713,-0.90,0.64,0.40,1.17
25.724,0.09,1.12,0.75,1.35
25.733,1.59,1.16,0.66,2.07
25.743,3.59,1.25,0.87,3.90
25.753,5.18,1.20,0.47,5.34
25.764,6.20,0.98,-0.03,6.27
25.774,6.17,0.74,-1.08,6.31
25.784,5.13,0.96,-1.37,5.40
25.794,3.95,1.37,-1.12,4.33
25.804,2.65,1.83,-0.92,3.35
25.813,1.02,2.45,-0.80,2.77
25.824,-0.37,2.56,-0.73,2.69
25.833,-0.78,2.02,-0.70,2.28
25.844,0.14,1.42,-0.64,1.56
25.853,1.62,0.81,-0.58,1.90
25.864,2.68,0.31,-0.50,2.74
25.874,2.87,-0.12,-0.38,2.90
25.884,2.71,-0.66,-0.25,2.80
25.894,2.79,-1.42,0.01,3.13
25.904,3.25,-2.18,0.23,3.92
25.913,3.64,-2.49,0.41,4.43
25.924,3.11,-2.25,0.19,3.85
25.934,1.93,-1.40,-0.28,2.40
25.944,0.95,-0.50,-0.76,1.31
25.954,0.45,0.17,-0.94,1.05
25.964,0.14,0.66,-0.96,1.17
25.973,-0.24,0.98,-0.90,1.35
25.984,-0.61,1.06,-0.81,1.47
25.994,-0.68,0.76,-0.70,1.23
26.004,-0.44,0.25,-0.61,0.79
26.014,-0.15,-0.19,-0.57,0.62
26.024,-0.02,-0.54,-0.50,0.74
26.034,-0.07,-0.80,-0.55,0.97
26.044,-0.19,-0.98,-0.73,1.24
26.054,-0.23,-1.03,-0.87,1.37
26.064,-0.18,-1.00,-0.95,1.39
26.074,-0.04,-0.90,-0.97,1.33
26.084,0.08,-0.71,-1.00,1.23
26.094,0.09,-0.45,-1.01,1.11
26.104,0.05,-0.18,-1.00,1.01
26.114,0.05,0.06,-0.93,0.93
26.124,0.04,0.24,-0.87,0.90
26.134,0.06,0.32,-0.75,0.82
26.144,-0.01,0.35,-0.69,0.77
26.154,-0.15,0.32,-0.62,0.71
26.164,-0.26,0.22,-0.59,0.68
26.174,-0.22,0.06,-0.49,0.54
26.184,-0.02,-0.09,-0.44,0.45
26.194,0.18,-0.20,-0.35,0.44
26.204,0.36,-0.26,-0.29,0.53
26.214,0.38,-0.30,-0.26,0.55
26.224,0.29,-0.31,-0.23,0.49
26.234,0.14,-0.37,-0.18,0.44
26.244,-0.07,-0.41,-0.17,0.45
26.254,-0.31,-0.38,-0.17,0.52
26.264,-0.58,-0.34,-0.19,0.70
26.274,-0.82,-0.26,-0.22,0.88
26.284,-1.02,-0.20,-0.29,1.08
26.294,-1.16,-0.10,-0.39,1.23
26.304,-1.26,0.00,-0.40,1.33
26.314,-1.28,0.02,-0.38,1.34
26.324,-1.14,-0.07,-0.37,1.20
26.334,-0.95,-0.31,-0.36,1.06
26.344,-0.80,-0.55,-0.37,1.04
26.354,-0.76,-0.86,-0.44,1.23
26.364,-0.83,-1.13,-0.56,1.51
26.374,-1.08,-1.19,-0.75,1.77
26.384,-1.51,-0.99,-0.95,2.05
26.394,-2.09,-0.75,-1.11,2.48
26.404,-2.77,-0.54,-1.11,3.04
26.414,-3.49,-0.31,-0.98,3.64
26.424,-3.78,-0.08,-0.80,3.86
26.434,-3.25,-0.04,-0.63,3.31
26.444,-1.82,-0.28,-0.44,1.90
26.454,-0.27,-0.86,-0.08,0.91
26.464,0.90,-1.36,0.25,1.65
26.474,1.41,-1.57,0.39,2.15
26.484,1.07,-1.62,0.27,1.96
26.494,0.02,-1.45,-0.11,1.45
26.504,-1.20,-1.02,-0.43,1.63
26.514,-2.22,-0.60,-0.56,2.37
26.524,-2.88,-0.12,-0.54,2.93
26.534,-3.28,0.08,-0.62,3.33
26.544,-3.10,-0.27,-0.96,3.26
26.554,-1.95,-0.53,-1.01,2.26
26.564,-0.72,-0.69,-0.91,1.35
26.574,0.03,-0.70,-0.80,1.07
26.584,-0.14,-0.66,-0.91,1.13
26.594,-0.78,-0.59,-0.92,1.34
26.604,-1.25,-0.61,-0.77,1.59
26.614,-1.35,-0.73,-0.70,1.69
26.624,-0.96,-0.80,-0.57,1.37
26.634,-0.61,-1.06,-0.64,1.38
26.644,-0.02,-1.17,-0.50,1.28
26.655,0.62,-0.90,-0.25,1.12
26.664,0.89,-0.68,-0.08,1.12
26.674,1.09,-0.29,0.25,1.16
26.684,1.57,0.20,0.48,1.66
26.694,2.40,0.80,0.59,2.59
26.704,3.28,1.27,0.32,3.53
26.714,3.83,1.49,-0.04,4.11
26.724,3.71,1.49,-0.47,4.02
26.734,2.84,1.57,-0.66,3.32
26.744,1.82,1.78,-0.54,2.60
26.754,0.92,1.97,-0.06,2.18
26.764,0.38,1.79,0.71,1.96
26.774,0.88,1.39,1.51,2.24
26.784,2.45,1.02,1.77,3.19
26.794,4.26,0.68,1.54,4.58
26.805,5.69,0.51,1.26,5.85
26.815,6.07,0.43,0.80,6.13
26.825,5.16,0.35,0.35,5.19
26.834,3.62,0.15,0.14,3.63
26.845,1.97,-0.19,0.19,1.98
26.854,0.60,-0.59,0.26,0.88
26.865,-0.38,-0.84,0.33,0.98
26.875,-1.01,-0.73,0.47,1.34
26.885,-1.38,-0.23,0.65,1.54
26.894,-1.44,0.47,0.91,1.77
26.905,-1.17,1.02,1.18,1.95
26.915,-0.65,1.27,1.19,1.86
26.925,-0.11,1.29,0.98,1.63
26.935,0.28,1.11,0.73,1.36
26.945,0.38,0.74,0.38,0.92
26.954,0.34,0.39,0.08,0.52
26.965,0.08,0.01,-0.18,0.20
26.975,-0.17,-0.33,-0.41,0.55
26.985,-0.32,-0.51,-0.53,0.80
26.995,-0.44,-0.48,-0.64,0.91
27.005,-0.53,-0.21,-0.67,0.88
27.015,-0.57,0.22,-0.60,0.86
27.025,-0.54,0.59,-0.50,0.94
27.035,-0.35,0.81,-0.36,0.96
27.045,-0.25,0.88,-0.19,0.93
27.055,-0.22,0.83,-0.01,0.86
27.065,-0.25,0.72,0.12,0.77
27.075,-0.33,0.54,0.22,0.67
27.085,-0.42,0.34,0.28,0.61
27.095,-0.45,0.17,0.31,0.57
27.105,-0.47,-0.00,0.37,0.60
27.115,-0.48,-0.14,0.38,0.63
27.125,-0.53,-0.28,0.38,0.71
27.135,-0.61,-0.40,0.34,0.80
27.145,-0.65,-0.39,0.30,0.82
27.155,-0.65,-0.30,0.31,0.78
27.165,-0.59,-0.19,0.30,0.69
27.175,-0.54,-0.11,0.28,0.62
27.185,-0.45,-0.05,0.23,0.51
27.195,-0.38,-0.02,0.16,0.41
27.205,-0.33,-0.00,0.15,0.36
27.215,-0.37,0.00,0.17,0.41
27.225,-0.55,-0.02,0.19,0.58
27.235,-0.79,-0.05,0.16,0.80
27.245,-1.06,-0.05,0.12,1.07
27.255,-1.29,-0.05,0.06,1.29
27.265,-1.38,-0.06,0.03,1.38
27.275,-1.34,-0.08,-0.03,1.35
27.285,-1.19,-0.08,-0.13,1.20
27.295,-0.99,-0.04,-0.14,1.00
27.305,-0.88,0.05,-0.06,0.88
27.315,-0.88,0.05,0.01,0.89
27.325,-0.98,0.02,-0.04,0.99
27.335,-1.20,-0.02,-0.05,1.20
27.345,-1.58,-0.11,-0.08,1.59
27.355,-1.96,-0.17,-0.18,1.97
27.365,-2.31,-0.16,-0.22,2.33
27.375,-2.61,-0.20,-0.14,2.62
27.385,-2.71,-0.27,-0.15,2.73
27.395,-2.49,-0.17,-0.16,2.50
27.405,-2.03,0.09,-0.12,2.04
27.415,-1.41,0.40,-0.16,1.47
27.425,-0.80,0.62,-0.20,1.03
27.435,-0.40,0.73,-0.27,0.87
27.445,-0.21,0.77,-0.39,0.89
27.455,-0.32,0.70,-0.55,0.94
27.465,-0.71,0.47,-0.78,1.15
27.475,-1.24,0.23,-0.94,1.57
27.485,-1.81,0.05,-1.02,2.08
27.495,-2.23,-0.04,-0.92,2.41
27.505,-2.47,-0.18,-0.57,2.54
27.515,-2.36,-0.23,-0.09,2.37
27.525,-1.99,-0.23,0.24,2.02
27.535,-1.60,-0.25,0.35,1.66
27.545,-1.33,-0.24,0.37,1.40
27.555,-1.30,-0.20,0.31,1.35
27.565,-1.64,-0.24,0.22,1.67
27.575,-1.94,-0.47,-0.02,2.00
27.585,-1.91,-0.25,0.13,1.94
27.595,-1.42,-0.21,0.25,1.46
27.605,-0.23,-0.38,0.05,0.45
27.615,1.59,-0.23,-0.44,1.66
27.625,3.75,0.31,-0.69,3.83
27.635,5.69,1.02,-0.41,5.80
27.645,6.38,1.64,-0.52,6.60
27.655,5.00,2.11,-1.03,5.52
27.665,2.73,2.21,-1.18,3.71
27.675,1.27,2.10,-1.21,2.73
27.685,0.57,2.01,-1.29,2.46
27.695,0.25,1.87,-1.16,2.21
27.705,0.96,1.59,-0.89,2.06
27.715,2.76,1.24,-0.65,3.09
27.725,5.09,0.90,-0.73,5.22
27.735,6.73,0.96,-0.79,6.84
27.745,6.58,1.20,-0.64,6.72
27.755,4.13,1.13,-0.61,4.33
27.765,1.59,0.56,-0.25,1.71
27.775,0.39,-0.41,0.21,0.60
27.785,0.02,-1.28,0.56,1.40
27.795,0.05,-1.86,0.80,2.03
27.805,0.28,-2.18,0.94,2.39
27.815,0.49,-2.27,0.87,2.48
27.825,0.64,-2.16,0.68,2.35
27.835,0.68,-1.91,0.43,2.08
27.845,0.48,-1.51,0.07,1.58
27.856,0.28,-0.94,-0.23,1.00
27.865,0.19,-0.41,-0.46,0.64
27.875,0.08,-0.08,-0.61,0.62
27.885,-0.05,0.01,-0.71,0.71
27.895,-0.09,-0.08,-0.75,0.76
27.905,-0.10,-0.31,-0.79,0.86
27.915,-0.18,-0.49,-0.82,0.97
27.925,-0.31,-0.53,-0.85,1.05
27.935,-0.35,-0.48,-0.84,1.03
27.945,-0.29,-0.38,-0.73,0.88
27.955,-0.08,-0.27,-0.57,0.63
27.966,0.02,-0.13,-0.40,0.42
27.975,0.00,0.00,-0.26,0.26
27.986,-0.17,0.01,-0.10,0.20
27.995,-0.40,-0.11,-0.03,0.41
28.006,-0.60,-0.24,-0.00,0.65
28.015,-0.73,-0.36,0.00,0.81
28.025,-0.73,-0.46,-0.03,0.87
28.036,-0.69,-0.46,-0.09,0.84
28.046,-0.64,-0.42,-0.14,0.78
28.056,-0.57,-0.43,-0.16,0.73
28.066,-0.37,-0.55,-0.05,0.67
28.076,-0.18,-0.70,0.09,0.73
28.086,-0.09,-0.85,0.26,0.89
28.096,-0.13,-1.01,0.39,1.10
28.106,-0.23,-1.06,0.41,1.16
28.116,-0.34,-1.00,0.30,1.10
28.126,-0.45,-0.82,0.14,0.95
28.136,-0.57,-0.62,0.06,0.85
28.146,-0.63,-0.36,-0.05,0.73
28.156,-0.87,-0.11,-0.15,0.89
28.166,-1.22,0.02,-0.36,1.28
28.176,-1.40,0.09,-0.45,1.47
28.186,-1.43,-0.00,-0.46,1.50
28.196,-1.28,-0.21,-0.44,1.37
28.206,-0.93,-0.42,-0.44,1.11
28.216,-0.58,-0.56,-0.56,0.98
28.226,-0.50,-0.60,-0.55,0.96
28.236,-0.54,-0.51,-0.57,0.94
28.246,-0.71,-0.29,-0.63,0.99
28.256,-0.97,-0.11,-0.59,1.14
28.266,-1.24,-0.23,-0.49,1.35
28.276,-1.51,-0.53,-0.48,1.67
28.286,-1.67,-0.64,-0.57,1.88
28.296,-1.74,-0.70,-0.53,1.94
28.306,-1.75,-0.71,-0.40,1.93
28.316,-1.64,-0.74,-0.54,1.88
28.326,-1.24,-0.65,-0.71,1.57
28.336,-0.73,-0.56,-0.70,1.15
28.346,-0.25,-0.50,-0.61,0.82
28.356,0.03,-0.36,-0.64,0.74
28.366,0.07,-0.06,-0.58,0.59
28.376,-0.20,0.04,-0.34,0.40
28.386,-0.58,-0.33,-0.29,0.73
28.396,-0.72,-0.68,-0.23,1.02
28.406,-0.72,-1.03,-0.05,1.26
28.416,-0.61,-1.46,0.22,1.60
28.426,-0.46,-1.81,0.54,1.95
28.436,-0.31,-2.08,0.72,2.22
28.446,-0.04,-2.10,0.74,2.23
28.456,0.28,-2.07,0.67,2.20
28.466,0.55,-1.91,0.63,2.09
28.476,0.65,-1.70,0.60,1.92
28.486,0.65,-1.46,0.74,1.76
28.496,0.49,-1.37,0.76,1.64
28.506,0.13,-1.56,0.59,1.67
28.516,-0.03,-1.76,0.74,1.91
28.526,0.29,-1.79,1.00,2.08
28.536,0.70,-1.77,0.80,2.06
28.546,1.12,-1.54,0.79,2.06
28.556,1.69,-1.13,1.04,2.28
28.566,2.14,-0.64,1.12,2.50
28.576,2.32,-0.24,0.88,2.49
28.586,2.28,-0.03,0.46,2.32
28.596,1.93,0.08,0.02,1.93
28.606,1.41,0.27,-0.58,1.54
28.616,0.67,0.81,-1.28,1.66
28.626,-0.09,1.66,-1.81,2.46
28.636,-0.66,2.66,-1.86,3.32
28.646,-0.70,3.34,-1.67,3.80
28.656,0.11,3.54,-1.50,3.85
28.666,1.58,3.39,-1.22,3.94
28.676,3.13,2.93,-0.86,4.38
28.686,4.06,2.18,-0.44,4.63
28.696,4.22,1.28,-0.19,4.41
28.706,3.67,0.53,-0.02,3.71
28.716,2.88,-0.05,0.13,2.89
28.726,2.22,-0.47,0.22,2.28
28.736,1.61,-0.60,0.30,1.74
28.746,0.91,-0.56,0.43,1.15
28.756,0.27,-0.39,0.49,0.68
28.766,-0.38,-0.12,0.40,0.56
28.776,-0.89,0.27,0.18,0.95
28.786,-1.17,0.72,0.04,1.38
28.796,-1.27,1.03,-0.07,1.64
28.806,-1.30,1.21,-0.15,1.78
28.816,-1.39,1.25,-0.19,1.88
28.826,-1.43,1.04,-0.19,1.78
28.836,-1.22,0.66,-0.13,1.39
28.846,-0.77,0.33,-0.02,0.83
28.856,-0.30,0.13,-0.00,0.32
28.867,0.00,0.06,-0.09,0.11
28.876,0.09,0.06,-0.21,0.23
28.886,0.04,0.13,-0.30,0.33
28.896,-0.06,0.24,-0.33,0.41
28.906,-0.19,0.38,-0.37,0.56
28.917,-0.29,0.50,-0.40,0.70
28.926,-0.43,0.56,-0.34,0.78
28.937,-0.50,0.55,-0.26,0.79
28.947,-0.51,0.52,-0.17,0.75
28.957,-0.46,0.49,-0.06,0.68
28.967,-0.38,0.46,-0.00,0.60
28.976,-0.31,0.37,0.06,0.49
28.986,-0.23,0.21,0.12,0.33
28.996,-0.14,0.01,0.17,0.22
29.006,-0.03,-0.21,0.24,0.32
29.017,-0.06,-0.37,0.34,0.50
29.027,-0.20,-0.46,0.40,0.64
29.037,-0.38,-0.49,0.46,0.77
29.047,-0.54,-0.47,0.52,0.88
29.057,-0.64,-0.39,0.58,0.95
29.067,-0.64,-0.32,0.62,0.95
29.077,-0.61,-0.26,0.62,0.91
29.087,-0.62,-0.21,0.68,0.94
29.096,-0.68,-0.20,0.66,0.97
29.107,-0.66,-0.17,0.67,0.95
29.116,-0.68,-0.12,0.65,0.95
29.127,-0.66,-0.13,0.59,0.90
29.137,-0.66,-0.11,0.45,0.81
29.147,-0.64,0.05,0.32,0.72
29.157,-0.53,0.28,0.22,0.64
29.167,-0.46,0.33,0.19,0.59
29.177,-0.41,0.20,0.22,0.50
29.187,-0.39,0.10,0.24,0.47
29.196,-0.34,0.10,0.22,0.41
29.207,-0.27,0.10,0.25,0.38
29.216,-0.25,0.12,0.33,0.43
29.227,-0.26,0.17,0.40,0.51
29.237,-0.34,0.15,0.51,0.64
29.247,-0.48,0.07,0.70,0.85
29.257,-0.61,-0.06,0.85,1.05
29.267,-0.69,-0.20,0.99,1.23
29.277,-0.71,-0.31,1.10,1.34
29.287,-0.65,-0.34,1.09,1.31
29.297,-0.46,-0.28,1.17,1.29
29.307,-0.08,-0.21,1.16,1.18
29.317,0.57,-0.09,0.94,1.11
29.327,1.37,0.07,0.71,1.55
29.337,2.10,0.24,0.59,2.20
29.347,2.62,0.38,0.49,2.69
29.357,2.60,0.68,0.37,2.71
29.367,1.79,1.07,0.30,2.11
29.377,0.54,1.20,0.33,1.35
29.387,-0.15,0.97,0.30,1.03
29.397,0.03,0.67,0.14,0.69
29.407,0.76,0.49,0.02,0.90
29.417,1.26,0.48,-0.01,1.35
29.427,1.24,0.51,0.01,1.34
29.437,0.80,0.52,0.14,0.97
29.447,0.05,0.45,0.21,0.50
29.457,-0.79,0.34,0.11,0.87
29.467,-1.35,0.29,-0.11,1.38
29.477,-1.40,0.33,-0.52,1.53
29.487,-1.09,0.45,-0.92,1.49
29.497,-0.60,0.58,-1.23,1.49
29.507,-0.06,0.64,-1.60,1.72
29.517,0.35,0.59,-1.89,2.01
29.527,0.47,0.38,-2.13,2.21
29.537,0.30,0.08,-2.26,2.28
29.547,-0.01,-0.18,-2.35,2.35
29.557,-0.22,-0.32,-2.35,2.38
29.567,-0.22,-0.25,-2.25,2.28
29.577,0.05,-0.06,-2.09,2.09
29.587,0.41,0.27,-1.91,1.98
29.597,0.73,0.71,-1.77,2.04
29.607,0.82,1.06,-1.66,2.13
29.617,0.73,1.23,-1.57,2.12
29.627,0.54,1.20,-1.52,2.01
29.637,0.32,1.00,-1.46,1.80
29.647,0.13,0.71,-1.38,1.56
29.657,0.09,0.39,-1.24,1.31
29.667,0.14,0.13,-1.04,1.06
29.677,0.26,-0.08,-0.88,0.92
29.687,0.30,-0.27,-0.72,0.82
29.697,0.19,-0.43,-0.60,0.76
29.707,0.07,-0.52,-0.54,0.75
29.717,-0.16,-0.55,-0.52,0.77
29.727,-0.46,-0.54,-0.49,0.86
29.737,-0.68,-0.56,-0.48,1.00
29.747,-0.79,-0.57,-0.42,1.06
29.757,-0.72,-0.59,-0.42,1.02
29.767,-0.51,-0.58,-0.42,0.88
29.777,-0.29,-0.58,-0.47,0.80
29.787,-0.17,-0.53,-0.47,0.73
29.797,-0.10,-0.46,-0.46,0.66
29.807,-0.03,-0.37,-0.42,0.56
29.817,0.03,-0.27,-0.38,0.47
29.827,0.03,-0.20,-0.31,0.37
29.837,0.03,-0.15,-0.25,0.29
29.847,0.01,-0.15,-0.21,0.25
29.857,-0.06,-0.16,-0.15,0.23
29.867,-0.10,-0.20,-0.06,0.23
29.877,-0.10,-0.30,0.01,0.32
29.887,-0.12,-0.44,0.12,0.47
29.897,-0.11,-0.55,0.12,0.58
29.907,-0.06,-0.57,0.11,0.58
29.917,0.01,-0.51,0.09,0.52
29.927,0.14,-0.45,0.06,0.47
29.937,0.23,-0.31,0.05,0.38
29.947,0.17,-0.14,0.04,0.23
29.957,0.04,-0.01,-0.00,0.04
29.967,-0.10,0.06,-0.11,0.16
29.977,-0.19,0.07,-0.26,0.33
29.987,-0.32,0.02,-0.36,0.48
29.997,-0.39,-0.04,-0.42,0.58
30.007,-0.47,-0.10,-0.45,0.66
30.017,-0.49,-0.11,-0.38,0.63
30.027,-0.48,-0.12,-0.32,0.59
30.037,-0.46,-0.16,-0.35,0.60
30.047,-0.43,-0.20,-0.34,0.58
30.057,-0.37,-0.27,-0.34,0.57
30.067,-0.26,-0.38,-0.33,0.56
30.077,-0.12,-0.46,-0.30,0.57
30.088,-0.01,-0.51,-0.27,0.58
30.097,0.05,-0.55,-0.25,0.61
30.108,0.09,-0.54,-0.16,0.57
30.117,0.13,-0.53,-0.07,0.55
30.127,0.13,-0.52,-0.06,0.54
30.137,0.12,-0.53,-0.06,0.55
30.147,0.11,-0.54,-0.08,0.56
30.157,0.07,-0.55,-0.13,0.57
30.168,-0.01,-0.55,-0.21,0.59
30.177,-0.08,-0.51,-0.28,0.58
30.188,-0.09,-0.48,-0.34,0.60
30.198,0.02,-0.46,-0.36,0.58
30.208,0.14,-0.50,-0.36,0.63
30.218,0.23,-0.54,-0.37,0.69
30.228,0.26,-0.59,-0.31,0.72
30.238,0.18,-0.59,-0.24,0.66
30.248,0.04,-0.60,-0.22,0.64
30.258,-0.06,-0.64,-0.18,0.67
30.268,-0.08,-0.66,-0.10,0.67
30.278,-0.14,-0.72,0.04,0.73
30.288,-0.22,-0.78,0.15,0.82
30.298,-0.29,-0.85,0.21,0.92
30.308,-0.31,-0.89,0.24,0.97
30.318,-0.23,-0.81,0.30,0.89
30.328,-0.02,-0.62,0.33,0.70
30.338,0.17,-0.46,0.27,0.56
30.348,0.38,-0.32,0.20,0.54
30.358,0.66,-0.14,0.16,0.69
30.368,0.86,-0.00,0.08,0.87
30.378,0.91,0.18,-0.02,0.93
30.388,0.81,0.35,-0.18,0.90
30.398,0.59,0.49,-0.39,0.86
30.408,0.31,0.56,-0.54,0.84
30.418,0.10,0.54,-0.60,0.81
30.428,0.06,0.52,-0.65,0.83
30.438,0.15,0.57,-0.71,0.93
30.448,0.15,0.64,-0.67,0.94
30.458,0.11,0.66,-0.57,0.88
30.468,0.07,0.55,-0.59,0.81
30.478,0.07,0.29,-0.69,0.75
30.488,0.14,0.01,-0.81,0.82
30.498,0.00,-0.20,-0.86,0.89
30.508,-0.36,-0.33,-0.79,0.93
30.518,-0.70,-0.38,-0.80,1.13
30.528,-0.90,-0.28,-0.86,1.27
30.538,-0.97,-0.06,-0.83,1.28
30.548,-0.95,0.17,-0.77,1.24
30.558,-0.76,0.35,-0.69,1.09
30.568,-0.47,0.56,-0.64,0.97
30.578,-0.23,0.71,-0.63,0.98
30.588,-0.03,0.79,-0.60,0.99
30.598,0.21,0.82,-0.51,0.99
30.608,0.35,0.76,-0.45,0.95
30.618,0.39,0.69,-0.42,0.90
30.628,0.37,0.64,-0.40,0.84
30.638,0.16,0.56,-0.30,0.66
30.648,-0.06,0.42,-0.18,0.46
30.658,-0.20,0.31,-0.10,0.38
30.668,-0.16,0.29,0.04,0.33
30.678,0.06,0.27,0.22,0.36
30.688,0.31,0.20,0.32,0.49
30.698,0.55,0.19,0.32,0.67
30.708,0.65,0.23,0.30,0.75
30.718,0.53,0.18,0.27,0.62
30.728,0.31,0.13,0.20,0.39
30.738,0.03,-0.04,0.16,0.16
30.748,-0.22,-0.25,0.20,0.39
30.758,-0.35,-0.50,0.24,0.65
30.768,-0.41,-0.67,0.32,0.85
30.778,-0.47,-0.69,0.40,0.93
30.788,-0.48,-0.61,0.45,0.90
30.798,-0.45,-0.39,0.50,0.78
30.808,-0.47,-0.14,0.52,0.71
30.818,-0.54,0.09,0.55,0.77
30.828,-0.64,0.22,0.61,0.91
30.838,-0.75,0.25,0.65,1.03
30.848,-0.89,0.17,0.65,1.11
30.858,-0.92,0.04,0.61,1.10
30.868,-0.93,-0.09,0.53,1.07
30.878,-0.92,-0.16,0.47,1.05
30.888,-0.82,-0.24,0.40,0.94
30.898,-0.64,-0.28,0.33,0.77
30.908,-0.49,-0.28,0.32,0.65
30.918,-0.41,-0.31,0.36,0.62
30.928,-0.34,-0.34,0.41,0.63
30.938,-0.37,-0.37,0.47,0.70
30.948,-0.48,-0.42,0.51,0.82
30.958,-0.67,-0.44,0.56,0.98
30.968,-0.93,-0.53,0.65,1.25
30.978,-1.24,-0.59,0.71,1.54
30.988,-1.56,-0.61,0.63,1.79
30.998,-1.94,-0.56,0.46,2.07
31.008,-2.32,-0.42,0.36,2.38
31.018,-2.59,-0.36,0.32,2.63
31.028,-2.72,-0.40,0.24,2.76
31.038,-2.78,-0.45,-0.01,2.82
31.048,-2.83,-0.47,-0.40,2.90
31.058,-2.95,-0.47,-0.70,3.06
31.068,-3.15,-0.46,-0.91,3.31
31.078,-3.30,-0.48,-0.96,3.47
31.088,-3.30,-0.47,-0.99,3.48
31.098,-3.12,-0.38,-0.79,3.24
31.108,-2.86,-0.38,-0.35,2.91
31.118,-2.47,-0.46,-0.07,2.51
31.128,-1.97,-0.38,0.24,2.02
31.138,-1.59,-0.11,0.45,1.66
31.148,-1.34,0.12,0.41,1.40
31.158,-1.22,0.23,0.22,1.26
31.169,-1.15,0.17,-0.15,1.18
31.178,-1.25,-0.05,-0.37,1.30
31.188,-1.36,-0.27,-0.38,1.43
31.198,-1.47,-0.33,-0.16,1.52
31.209,-1.59,-0.31,0.15,1.63
31.219,-1.64,-0.14,0.46,1.71
31.229,-1.65,0.05,0.56,1.74
31.239,-1.61,0.19,0.61,1.73
31.249,-1.50,0.10,0.49,1.58
31.259,-0.97,0.06,0.14,0.99
31.269,-0.27,0.41,0.08,0.50
31.278,0.31,0.49,-0.29,0.65
31.289,1.38,0.28,-1.00,1.73
31.299,2.55,0.46,-1.46,2.97
31.309,3.45,0.61,-1.83,3.95
31.319,4.48,0.77,-1.79,4.88
31.329,5.05,1.23,-1.85,5.52
31.339,4.74,2.15,-1.33,5.37
31.349,4.04,3.02,-0.64,5.08
31.359,2.82,3.40,-0.39,4.43
31.369,1.28,3.24,-0.06,3.49
31.379,0.84,2.30,-0.03,2.45
31.389,2.40,1.14,-0.24,2.66
31.399,5.54,0.20,0.04,5.55
31.409,8.38,-0.38,0.94,8.44
31.418,8.19,-0.75,1.28,8.32
31.429,4.81,-1.05,1.04,5.03
31.439,1.41,-0.93,0.97,1.95
31.449,-0.46,-0.84,0.95,1.35
31.459,-1.43,-0.61,0.99,1.84
31.469,-1.51,-0.44,1.01,1.87
31.479,-0.80,-0.51,0.82,1.25
31.489,0.31,-0.96,0.32,1.06
31.499,1.48,-1.37,-0.17,2.03
31.509,2.30,-1.21,-0.39,2.63
31.519,2.35,-0.53,-0.42,2.45
31.529,1.73,0.10,-0.51,1.81
31.539,0.94,0.36,-0.68,1.21
31.549,0.27,0.28,-0.79,0.88
31.559,-0.13,0.05,-0.80,0.81
31.569,-0.48,-0.26,-0.67,0.86
31.579,-0.75,-0.56,-0.44,1.03
31.589,-0.96,-0.84,-0.29,1.31
31.599,-1.13,-1.02,-0.17,1.53
31.609,-1.19,-1.07,-0.06,1.60
31.619,-1.04,-1.01,0.01,1.45
31.629,-0.73,-0.90,0.12,1.16
31.639,-0.38,-0.79,0.14,0.89
31.649,-0.18,-0.68,0.05,0.71
31.659,-0.28,-0.62,-0.06,0.68
31.669,-0.49,-0.66,-0.13,0.84
31.679,-0.67,-0.72,-0.20,1.00
31.689,-0.76,-0.82,-0.21,1.14
31.699,-0.81,-0.93,-0.19,1.25
31.709,-0.77,-1.00,-0.14,1.27
31.719,-0.67,-1.06,0.02,1.25
31.729,-0.46,-1.12,0.12,1.21
31.739,-0.23,-1.10,0.26,1.15
31.749,-0.17,-1.08,0.35,1.15
31.759,-0.28,-0.93,0.33,1.03
31.769,-0.57,-0.70,0.26,0.94
31.779,-0.97,-0.41,0.07,1.05
31.789,-1.47,-0.14,-0.16,1.48
31.799,-1.96,-0.07,-0.09,1.96
31.809,-2.15,-0.18,-0.02,2.15
31.819,-2.08,-0.28,-0.33,2.12
31.829,-1.97,-0.45,-0.59,2.11
31.839,-1.84,-0.60,-0.79,2.09
31.849,-1.62,-0.67,-0.98,2.01
31.859,-1.47,-0.51,-1.31,2.04
31.869,-1.53,-0.24,-1.64,2.26
31.879,-1.88,-0.07,-1.62,2.48
31.889,-2.12,-0.02,-1.35,2.52
31.899,-2.10,-0.08,-1.08,2.37
31.909,-1.82,-0.41,-0.66,1.98
31.919,-1.43,-1.16,-0.27,1.86
31.929,-0.80,-1.88,-0.09,2.05
31.939,-0.25,-2.18,-0.07,2.20
31.949,-0.02,-2.07,-0.21,2.08
31.959,-0.25,-1.72,-0.42,1.79
31.969,-0.82,-1.15,-0.68,1.57
31.979,-1.30,-0.44,-0.93,1.66
31.989,-1.54,-0.02,-0.83,1.75
31.999,-1.65,0.02,-0.72,1.81
32.009,-1.54,-0.13,-0.54,1.63
32.019,-1.11,-0.44,-0.26,1.22
32.029,-0.58,-0.97,-0.20,1.15
32.039,-0.13,-1.36,-0.32,1.41
32.049,0.00,-1.47,-0.58,1.58
32.059,-0.21,-1.36,-0.76,1.58
32.069,-0.61,-1.15,-0.90,1.58
32.079,-0.94,-0.87,-0.94,1.59
32.089,-0.98,-0.47,-0.83,1.37
32.099,-0.95,-0.54,-0.76,1.33
32.109,-0.34,-0.84,-0.65,1.12
32.119,0.63,-0.85,-0.47,1.16
32.129,1.23,-0.91,-0.41,1.59
32.139,1.74,-0.53,0.16,1.83
32.149,2.29,-0.02,0.82,2.44
32.159,2.87,0.40,0.95,3.05
32.169,3.34,0.81,0.66,3.50
32.179,3.89,0.99,0.50,4.04
32.189,4.31,0.86,-0.01,4.39
32.199,4.08,1.11,-0.76,4.29
32.210,3.28,1.93,-1.25,4.01
32.219,2.31,2.64,-1.42,3.78
32.229,1.32,3.13,-1.36,3.66
32.239,0.61,3.25,-0.99,3.45
32.250,0.41,2.86,-0.34,2.91
32.259,1.04,2.14,0.30,2.40
32.269,2.14,1.31,0.83,2.64
32.279,3.18,0.67,1.16,3.45
32.289,3.69,0.39,1.41,3.97
32.300,3.49,0.38,1.50,3.81
32.309,2.91,0.45,1.48,3.30
32.319,2.23,0.34,1.27,2.59
32.330,1.54,0.02,1.06,1.87
32.339,0.98,-0.31,1.07,1.48
32.350,0.45,-0.56,1.15,1.35
32.360,0.06,-0.57,1.04,1.18
32.370,-0.23,-0.35,0.88,0.97
32.380,-0.32,-0.02,0.73,0.80
32.390,-0.29,0.32,0.67,0.80
32.400,-0.26,0.55,0.62,0.87
32.410,-0.22,0.66,0.56,0.89
32.420,-0.21,0.69,0.45,0.85
32.430,-0.32,0.64,0.26,0.76
32.440,-0.68,0.56,0.05,0.88
32.450,-1.10,0.46,-0.10,1.20
32.460,-1.41,0.38,-0.20,1.47
32.470,-1.59,0.30,-0.27,1.64
32.480,-1.60,0.31,-0.26,1.65
32.490,-1.39,0.36,-0.17,1.45
32.500,-1.00,0.39,-0.08,1.08
32.510,-0.60,0.42,-0.01,0.73
32.520,-0.32,0.39,0.07,0.51
32.530,-0.20,0.35,0.08,0.41
32.540,-0.27,0.32,0.11,0.43
32.550,-0.46,0.34,0.17,0.60
32.560,-0.65,0.36,0.23,0.78
32.570,-0.78,0.35,0.25,0.89
32.580,-0.84,0.32,0.31,0.95
32.590,-0.78,0.27,0.35,0.90
32.600,-0.70,0.19,0.40,0.83
32.610,-0.65,0.07,0.42,0.78
32.620,-0.60,-0.07,0.39,0.72
32.630,-0.58,-0.24,0.29,0.69
32.640,-0.54,-0.46,0.11,0.72
32.650,-0.41,-0.67,-0.09,0.79
32.660,-0.31,-0.81,-0.22,0.89
32.670,-0.30,-0.82,-0.08,0.88
32.680,-0.35,-0.66,0.44,0.87
32.690,0.06,-0.30,0.58,0.65
32.700,-0.03,0.30,0.86,0.92
32.710,-0.33,0.61,0.93,1.16
32.720,-0.46,0.73,0.83,1.19
32.730,-0.50,0.61,0.58,0.98
32.740,-0.38,0.26,0.36,0.59
32.750,-0.23,-0.12,0.20,0.32
32.760,-0.16,-0.44,0.06,0.47
32.770,-0.15,-0.63,-0.08,0.65
32.780,-0.23,-0.75,-0.16,0.80
32.790,-0.36,-0.73,-0.18,0.84
32.800,-0.57,-0.57,-0.21,0.83
32.810,-0.69,-0.29,-0.21,0.78
32.820,-0.68,-0.00,-0.18,0.70
32.830,-0.52,0.17,-0.10,0.56
32.840,-0.41,0.25,-0.04,0.49
32.850,-0.41,0.31,0.02,0.52
32.860,-0.50,0.38,0.06,0.63
32.870,-0.64,0.43,0.02,0.77
32.880,-0.73,0.40,0.02,0.83
32.890,-0.79,0.33,0.07,0.85
32.900,-0.79,0.15,0.13,0.81
32.910,-0.69,0.01,0.14,0.70
32.920,-0.61,-0.06,0.16,0.63
32.930,-0.62,-0.15,0.22,0.68
32.940,-0.62,-0.20,0.29,0.71
32.950,-0.59,-0.22,0.35,0.72
32.960,-0.71,-0.25,0.34,0.82
32.970,-0.81,-0.27,0.33,0.92
32.980,-0.84,-0.30,0.32,0.95
32.990,-0.86,-0.19,0.37,0.95
33.000,-0.83,-0.07,0.44,0.94
33.010,-0.82,0.02,0.42,0.92
33.020,-0.86,0.16,0.39,0.96
33.030,-0.95,0.25,0.40,1.07
33.040,-1.01,0.26,0.40,1.12
33.050,-1.04,0.22,0.34,1.12
33.060,-1.07,0.16,0.11,1.09
33.070,-1.02,0.13,-0.04,1.03
33.080,-1.01,0.15,-0.06,1.03
33.090,-0.94,0.17,0.00,0.95
33.100,-1.00,0.20,0.09,1.02
33.110,-1.09,0.20,0.17,1.12
33.120,-1.27,0.20,0.19,1.30
33.130,-1.51,0.20,0.26,1.54
33.140,-1.75,0.14,0.26,1.77
33.150,-1.88,0.13,0.33,1.92
33.160,-1.93,0.17,0.39,1.98
33.170,-1.91,0.28,0.41,1.98
33.180,-1.82,0.31,0.43,1.90
33.191,-1.68,0.29,0.50,1.78
33.200,-1.56,0.33,0.41,1.65
33.211,-1.55,0.31,0.26,1.60
33.220,-1.65,0.26,0.06,1.67
33.230,-1.62,0.19,-0.20,1.64
33.240,-1.44,0.23,-0.41,1.52
33.250,-1.52,0.19,-0.35,1.57
33.260,-1.60,-0.16,-0.25,1.63
33.270,-1.39,-0.47,-0.02,1.47
33.280,-0.75,-0.50,-0.42,1.00
33.290,0.79,-0.09,-0.43,0.90
33.300,2.99,0.23,0.05,3.00
33.310,4.31,0.10,-0.06,4.32
33.320,4.26,-0.13,-0.45,4.29
33.330,3.06,-0.01,-0.83,3.17
33.340,1.10,0.35,-1.27,1.71
33.351,-0.09,0.57,-1.82,1.91
33.360,0.04,0.81,-2.03,2.18
33.370,1.17,0.92,-1.91,2.42
33.380,2.64,0.92,-1.68,3.26
33.390,3.58,1.23,-1.39,4.03
33.401,3.61,1.49,-1.05,4.05
33.410,3.13,1.01,-1.01,3.44
