time,ax,ay,az,atotal
0.000,-0.21,0.03,0.03,0.21
0.010,-0.32,0.04,-0.16,0.36
0.020,-0.25,0.01,-0.15,0.29
0.030,0.04,0.00,-0.05,0.06
0.040,0.17,0.06,-0.10,0.20
0.050,0.17,0.14,-0.11,0.25
0.060,0.09,0.17,-0.12,0.23
0.070,0.02,0.17,-0.13,0.21
0.080,-0.06,0.14,-0.12,0.19
0.090,-0.17,0.09,-0.09,0.21
0.100,-0.20,0.07,-0.05,0.22
0.110,-0.19,0.03,-0.01,0.19
0.120,-0.16,0.00,0.04,0.17
0.130,-0.15,-0.01,0.12,0.19
0.140,-0.11,-0.02,0.16,0.19
0.150,-0.04,-0.08,0.19,0.21
0.160,-0.01,-0.11,0.16,0.19
0.170,-0.11,-0.07,0.14,0.19
0.180,-0.19,-0.03,0.12,0.23
0.190,-0.27,-0.03,0.13,0.30
0.200,-0.30,-0.09,0.10,0.33
0.210,-0.25,-0.20,0.11,0.33
0.220,-0.18,-0.23,0.07,0.30
0.230,-0.16,-0.26,0.04,0.31
0.240,-0.15,-0.26,0.00,0.30
0.250,-0.09,-0.12,-0.08,0.17
0.260,-0.02,-0.08,-0.05,0.10
0.270,0.07,-0.12,0.03,0.14
0.280,0.13,-0.12,0.05,0.18
0.291,0.11,-0.15,0.04,0.19
0.300,-0.03,-0.18,-0.01,0.19
0.310,-0.15,-0.18,-0.13,0.27
0.320,-0.13,-0.16,-0.20,0.28
0.330,0.03,-0.04,-0.22,0.23
0.340,0.00,0.19,-0.26,0.32
0.350,-0.19,0.50,-0.33,0.63
0.360,0.03,0.47,-0.21,0.52
0.371,0.13,0.22,-0.20,0.33
0.380,0.12,0.12,-0.25,0.30
0.391,0.15,0.03,-0.17,0.23
0.400,-0.01,-0.09,-0.02,0.10
0.410,-0.20,-0.23,-0.01,0.30
0.420,-0.27,-0.44,-0.01,0.52
0.430,-0.23,-0.56,-0.03,0.61
0.440,-0.18,-0.58,0.01,0.61
0.450,-0.20,-0.45,0.08,0.50
0.460,-0.28,-0.36,0.15,0.48
0.471,-0.27,-0.37,0.17,0.49
0.481,-0.20,-0.40,0.16,0.47
0.491,-0.16,-0.42,0.14,0.47
0.500,-0.21,-0.42,0.12,0.49
0.511,-0.20,-0.45,0.09,0.50
0.521,-0.14,-0.46,0.11,0.49
0.531,-0.07,-0.40,0.24,0.48
0.541,-0.11,-0.39,0.33,0.52
0.551,-0.14,-0.42,0.34,0.56
0.560,-0.21,-0.47,0.35,0.62
0.571,-0.28,-0.47,0.34,0.64
0.581,-0.28,-0.46,0.31,0.62
0.591,-0.23,-0.46,0.32,0.61
0.600,-0.21,-0.46,0.29,0.59
0.611,-0.32,-0.38,0.23,0.55
0.621,-0.40,-0.29,0.14,0.51
0.631,-0.45,-0.21,0.07,0.50
0.641,-0.41,-0.17,0.10,0.46
0.651,-0.32,-0.15,0.17,0.40
0.661,-0.27,-0.18,0.26,0.41
0.671,-0.33,-0.21,0.27,0.48
0.681,-0.44,-0.17,0.15,0.49
0.691,-0.50,-0.05,0.03,0.50
0.701,-0.43,0.11,-0.03,0.45
0.711,-0.33,0.23,0.15,0.42
0.721,-0.13,0.09,0.40,0.43
0.731,0.07,-0.22,0.48,0.54
0.741,0.10,-0.36,0.49,0.62
0.751,-0.19,-0.38,0.47,0.64
0.761,-0.52,-0.27,0.47,0.75
0.771,-0.66,-0.25,0.47,0.85
0.781,-0.69,-0.25,0.36,0.81
0.791,-0.67,-0.18,0.23,0.73
0.801,-0.65,-0.12,0.14,0.68
0.811,-0.70,-0.07,-0.01,0.70
0.821,-0.65,-0.01,-0.20,0.68
0.831,-0.58,0.05,-0.12,0.60
0.841,-0.64,-0.02,0.08,0.64
0.851,-0.66,-0.18,0.18,0.71
0.861,-0.68,-0.26,0.39,0.82
0.871,-0.83,-0.33,0.48,1.01
0.881,-0.98,-0.30,0.40,1.11
0.891,-1.06,-0.27,0.39,1.17
0.901,-1.10,-0.25,0.32,1.18
0.911,-1.13,-0.16,0.16,1.16
0.921,-1.27,-0.09,0.02,1.27
0.931,-1.42,-0.08,0.05,1.42
0.941,-1.61,-0.21,-0.05,1.63
0.951,-1.79,-0.29,0.12,1.81
0.961,-1.83,-0.37,0.74,2.01
0.971,-1.58,-0.56,1.13,2.02
0.981,-0.96,-0.73,1.18,1.69
0.991,-0.30,-0.84,1.43,1.69
1.001,0.24,-0.77,1.42,1.63
1.011,0.59,-0.66,1.06,1.38
1.021,0.51,-0.44,0.53,0.86
1.031,-0.21,-0.07,-0.07,0.23
1.041,-1.34,0.23,-0.12,1.37
1.051,-2.19,0.29,-0.10,2.21
1.061,-2.43,0.23,0.18,2.45
1.071,-2.22,-0.11,0.54,2.28
1.081,-1.52,-0.64,0.55,1.74
1.091,-0.55,-0.77,0.42,1.03
1.101,-0.01,-0.66,0.09,0.67
1.111,-0.18,-0.43,-0.04,0.47
1.121,-0.80,-0.27,0.02,0.85
1.131,-1.32,-0.22,0.09,1.35
1.141,-1.44,-0.20,0.26,1.48
1.151,-1.17,-0.46,0.38,1.32
1.161,-0.94,-0.90,0.74,1.50
1.171,-0.42,-1.10,0.73,1.38
1.181,0.08,-1.13,0.53,1.25
1.191,0.22,-0.94,0.43,1.06
1.201,0.09,-0.71,0.66,0.98
1.211,-0.12,-0.59,0.91,1.09
1.221,-0.34,-0.66,0.83,1.12
1.231,-0.51,-0.71,0.67,1.10
1.241,-0.59,-0.60,0.47,0.96
1.251,-0.54,-0.58,0.30,0.84
1.261,-0.49,-0.58,-0.05,0.77
1.271,-0.49,-0.32,-0.04,0.59
1.281,-0.62,-0.07,0.28,0.68
1.291,-0.58,-0.21,0.01,0.62
1.301,-0.58,-0.49,-0.54,0.93
1.311,-0.80,-0.37,-0.68,1.11
1.321,-0.82,0.13,-0.66,1.06
1.331,-0.56,0.40,-0.94,1.16
1.341,-0.42,0.50,-1.49,1.63
1.351,-0.64,0.72,-1.55,1.83
1.361,-0.61,1.08,-1.51,1.95
1.371,-0.41,1.42,-1.50,2.11
1.381,-0.21,1.57,-1.58,2.23
1.391,0.07,1.49,-1.47,2.09
1.401,0.64,1.45,-0.97,1.86
1.411,1.45,1.47,-0.44,2.12
1.421,2.45,1.52,-0.01,2.88
1.431,3.46,1.70,0.51,3.89
1.441,4.62,1.89,0.87,5.07
1.451,5.29,2.03,1.03,5.76
1.461,4.95,1.41,1.29,5.31
1.471,4.17,0.56,1.42,4.44
1.481,3.14,-0.12,1.35,3.42
1.491,1.97,-0.75,1.19,2.42
1.501,1.11,-0.94,1.19,1.88
1.511,0.29,-0.97,1.06,1.47
1.521,-0.30,-1.07,0.94,1.46
1.531,-0.33,-0.85,0.98,1.34
1.541,-0.16,-0.55,1.01,1.16
1.551,-0.06,-0.25,1.01,1.04
1.561,-0.15,-0.03,0.91,0.92
1.571,-0.35,0.11,0.77,0.86
1.581,-0.54,0.22,0.66,0.88
1.591,-0.76,0.27,0.54,0.97
1.601,-0.86,0.23,0.55,1.05
1.611,-0.87,0.05,0.44,0.97
1.621,-0.88,-0.12,0.29,0.94
1.631,-1.01,-0.13,0.19,1.04
1.641,-1.22,0.01,0.18,1.24
1.651,-1.40,0.15,0.14,1.42
1.661,-1.46,0.35,-0.01,1.51
1.671,-1.53,0.49,-0.13,1.61
1.681,-1.58,0.60,-0.24,1.71
1.691,-1.56,0.79,-0.31,1.78
1.701,-1.63,0.86,-0.25,1.86
1.712,-1.67,0.89,-0.30,1.91
1.722,-1.79,1.00,-0.45,2.10
1.732,-1.98,1.18,-0.61,2.39
1.742,-2.18,1.33,-0.97,2.73
1.752,-2.43,1.41,-1.05,3.00
1.762,-2.98,1.23,-0.90,3.35
1.772,-3.50,0.81,-0.75,3.67
1.782,-3.84,0.33,-0.75,3.92
1.792,-3.86,-0.09,-0.84,3.95
1.802,-3.58,-0.45,-0.74,3.68
1.812,-3.12,-0.68,-0.49,3.23
1.822,-2.88,-0.83,-0.38,3.02
1.832,-2.88,-0.64,-0.12,2.95
1.842,-2.86,-0.14,0.14,2.87
1.852,-2.81,0.42,0.37,2.86
1.862,-2.74,0.70,0.65,2.90
1.872,-2.47,0.77,1.04,2.79
1.882,-1.94,0.61,1.47,2.51
1.892,-1.34,0.36,1.75,2.24
1.902,-0.78,0.11,1.82,1.98
1.912,-0.40,-0.07,1.73,1.78
1.922,-0.26,-0.09,1.55,1.58
1.932,-0.24,0.11,1.40,1.42
1.942,0.03,0.52,1.13,1.25
1.952,0.76,1.25,0.80,1.66
1.962,1.76,1.96,0.32,2.65
1.972,3.32,2.49,0.22,4.16
1.982,4.89,2.71,1.15,5.71
1.992,5.58,1.90,1.33,6.04
2.002,6.07,0.62,0.53,6.12
2.012,6.32,-0.04,-0.05,6.32
2.022,5.11,-0.16,-0.35,5.12
2.032,2.01,-0.53,-0.85,2.24
2.042,-0.56,-0.47,-0.99,1.23
2.052,-0.67,-0.60,-0.22,0.93
2.062,1.39,-0.80,0.75,1.77
2.072,4.00,-1.83,1.56,4.67
2.082,6.29,-3.14,2.18,7.36
2.092,6.21,-3.90,2.26,7.67
2.102,3.55,-3.10,1.72,5.01
2.112,1.00,-1.71,1.13,2.28
2.122,-0.36,-0.23,0.75,0.86
2.132,-1.16,1.04,0.37,1.60
2.142,-1.55,1.67,0.14,2.28
2.152,-1.37,1.61,-0.00,2.11
2.162,-0.63,1.10,0.13,1.28
2.172,0.40,0.39,0.19,0.59
2.182,1.40,-0.32,0.10,1.44
2.192,1.63,-0.80,-0.23,1.83
2.202,1.00,-0.94,-0.57,1.48
2.212,0.24,-0.85,-0.82,1.21
2.222,-0.31,-0.79,-0.93,1.26
2.232,-0.52,-0.79,-0.90,1.30
2.242,-0.46,-0.70,-0.74,1.12
2.252,-0.43,-0.57,-0.65,0.96
2.262,-0.46,-0.38,-0.66,0.89
2.272,-0.63,-0.20,-0.62,0.90
2.282,-0.84,-0.12,-0.59,1.03
2.292,-1.00,-0.21,-0.52,1.14
2.302,-1.13,-0.41,-0.49,1.30
2.312,-1.33,-0.57,-0.65,1.59
2.322,-1.52,-0.67,-0.84,1.86
2.332,-1.65,-0.80,-0.91,2.04
2.342,-1.57,-0.88,-1.08,2.10
2.352,-1.40,-0.88,-1.40,2.16
2.362,-1.36,-0.72,-1.74,2.32
2.372,-1.75,-0.47,-1.84,2.58
2.382,-2.65,-0.29,-1.75,3.19
2.392,-3.68,-0.34,-1.48,3.98
2.402,-4.33,-0.39,-1.08,4.48
2.412,-4.48,-0.46,-0.78,4.57
2.422,-4.02,-0.56,-0.73,4.12
2.432,-3.45,-0.72,-0.76,3.61
2.442,-3.36,-1.09,-0.37,3.56
2.452,-3.60,-1.50,0.25,3.91
2.462,-3.24,-1.59,0.25,3.62
2.472,-2.36,-1.16,0.44,2.67
2.482,-1.32,-0.46,0.73,1.58
2.492,-0.46,-0.51,0.87,1.10
2.502,0.23,-1.08,1.26,1.68
2.512,0.60,-1.55,1.54,2.27
2.522,0.38,-1.87,1.54,2.45
2.532,-0.35,-1.77,1.38,2.27
2.542,-1.04,-1.50,0.73,1.96
2.552,-1.30,-1.36,0.54,1.95
2.562,-0.98,-1.08,0.61,1.58
2.572,-0.00,-0.64,0.24,0.69
2.582,1.14,-0.18,-0.56,1.28
2.593,1.73,0.24,-0.28,1.77
2.602,2.27,0.41,0.46,2.35
2.612,2.59,0.08,0.56,2.65
2.622,2.42,-0.34,-0.04,2.45
2.632,2.08,-0.14,-0.76,2.22
2.642,1.64,0.58,-1.50,2.30
2.652,1.14,0.83,-2.18,2.60
2.662,0.94,1.00,-2.40,2.76
2.672,1.03,1.42,-2.46,3.02
2.682,1.38,1.92,-1.98,3.09
2.692,2.26,2.21,-1.21,3.39
2.702,3.42,2.17,-0.37,4.07
2.712,4.45,2.09,0.42,4.93
2.722,5.29,2.17,1.12,5.83
2.732,5.86,2.75,1.71,6.69
2.742,5.49,3.01,2.04,6.59
2.752,3.91,1.99,1.42,4.61
2.763,2.18,0.47,0.78,2.37
2.773,0.62,-0.38,0.85,1.12
2.782,-0.71,-0.85,0.82,1.38
2.792,-1.26,-1.12,0.86,1.90
2.802,-1.32,-1.19,1.08,2.08
2.813,-1.22,-1.06,1.21,2.02
2.822,-1.14,-0.79,1.20,1.83
2.833,-1.21,-0.55,1.17,1.77
2.842,-1.41,-0.42,1.43,2.05
2.853,-1.75,-0.51,1.73,2.51
2.863,-1.87,-0.61,1.71,2.61
2.873,-1.82,-0.68,1.55,2.48
2.883,-1.92,-0.62,1.36,2.44
2.893,-2.18,-0.48,0.75,2.35
2.903,-2.73,-0.29,0.32,2.76
2.913,-3.46,-0.01,0.14,3.46
2.923,-4.13,0.35,-0.00,4.14
2.933,-4.43,0.75,-0.39,4.51
2.942,-4.30,1.11,-0.95,4.54
2.953,-4.41,1.04,-1.23,4.69
2.962,-4.66,0.68,-1.14,4.84
2.973,-4.81,0.13,-1.22,4.97
2.983,-4.68,-0.54,-1.38,4.91
2.993,-3.82,-0.93,-1.39,4.17
3.003,-2.59,-0.83,-1.31,3.02
3.013,-1.56,-0.28,-1.10,1.93
3.023,-1.14,0.55,-0.30,1.30
3.033,-1.20,1.48,0.20,1.92
3.043,-1.52,2.20,0.59,2.74
3.053,-1.80,2.43,0.98,3.18
3.063,-2.03,1.98,1.55,3.23
3.073,-1.58,1.47,1.92,2.89
3.083,-0.35,1.42,1.83,2.34
3.093,1.10,1.24,1.26,2.08
3.103,2.68,1.07,1.31,3.17
3.113,3.91,0.64,1.91,4.40
3.123,5.02,-0.46,-0.92,5.12
3.133,6.10,-1.68,-1.84,6.59
3.143,6.37,-1.81,-2.22,6.98
3.153,5.25,-0.78,-1.80,5.61
3.163,3.15,0.05,-0.55,3.19
3.173,1.07,0.54,-0.04,1.20
3.183,0.51,0.75,0.20,0.93
3.193,2.02,0.24,0.92,2.23
3.203,4.79,-0.83,1.40,5.06
3.213,7.35,-1.78,1.98,7.81
3.223,7.80,-2.29,2.22,8.42
3.233,5.06,-2.10,1.76,5.75
3.243,1.74,-1.31,1.56,2.68
3.253,-0.13,-0.67,1.21,1.39
3.263,-0.61,0.03,0.89,1.08
3.273,-0.78,0.32,0.66,1.07
3.283,-0.67,0.34,0.50,0.90
3.293,-0.54,0.23,0.26,0.64
3.303,-0.55,0.16,-0.15,0.59
3.313,-0.61,0.09,-0.44,0.76
3.323,-0.64,-0.05,-0.67,0.92
3.333,-0.74,-0.24,-0.87,1.17
3.343,-0.89,-0.46,-1.23,1.58
3.353,-0.98,-0.58,-1.39,1.80
3.363,-1.15,-0.58,-1.28,1.81
3.373,-1.58,-0.56,-0.87,1.88
3.383,-2.10,-0.65,-0.57,2.27
3.393,-2.66,-0.73,-0.44,2.79
3.403,-3.29,-0.84,-0.37,3.42
3.413,-3.83,-0.89,-0.16,3.94
3.423,-3.76,-0.92,-0.09,3.87
3.433,-2.86,-1.19,0.26,3.11
3.443,-1.63,-1.83,0.80,2.58
3.453,-0.52,-2.50,1.20,2.82
3.463,-0.06,-2.79,1.47,3.16
3.473,-0.44,-3.03,1.55,3.43
3.483,-0.96,-3.13,1.11,3.46
3.493,-1.62,-2.86,1.26,3.53
3.503,-2.17,-2.56,1.51,3.68
3.513,-2.03,-2.22,1.63,3.42
3.523,-1.97,-1.83,1.85,3.27
3.533,-2.11,-1.58,2.09,3.37
3.543,-2.07,-1.65,2.05,3.35
3.553,-1.42,-1.65,1.78,2.82
3.563,-0.61,-1.17,2.01,2.41
3.573,-0.33,-0.94,2.34,2.54
3.583,-0.36,-1.02,2.41,2.64
3.593,-0.88,-1.67,2.31,2.98
3.603,-1.22,-2.49,2.44,3.69
3.613,-0.90,-2.99,2.99,4.33
3.623,-0.06,-3.28,3.43,4.74
3.633,0.79,-3.30,3.47,4.85
3.643,1.05,-3.02,3.13,4.48
3.653,0.58,-2.56,2.65,3.73
3.663,-0.15,-1.88,1.98,2.74
3.673,-1.03,-0.99,1.09,1.80
3.683,-1.90,-0.09,-0.22,1.91
3.693,-2.61,0.60,-1.56,3.10
3.703,-3.12,0.57,-2.90,4.30
3.713,-3.13,0.34,-4.46,5.46
3.723,-2.31,0.55,-4.96,5.50
3.733,-0.86,1.18,-3.47,3.76
3.743,1.45,1.74,-2.12,3.10
3.753,5.00,2.35,-2.18,5.94
3.763,7.29,2.35,-2.44,8.04
3.773,8.37,1.82,-2.38,8.89
3.783,8.74,0.67,-2.05,9.00
3.793,7.77,0.08,-1.61,7.94
3.803,6.38,0.14,-1.19,6.49
3.813,6.19,0.87,-0.50,6.27
3.823,6.47,1.97,-0.09,6.77
3.833,6.11,2.01,0.25,6.44
3.843,5.64,1.17,0.62,5.79
3.853,4.91,0.03,0.86,4.99
3.863,4.14,-1.25,0.89,4.42
3.873,3.33,-2.04,0.67,3.96
3.883,2.00,-2.32,0.41,3.09
3.893,0.77,-2.35,0.02,2.48
3.903,-0.28,-1.89,-0.17,1.92
3.914,-1.16,-1.24,-0.20,1.71
3.923,-2.03,-0.55,-0.24,2.11
3.933,-2.85,-0.05,-0.34,2.87
3.943,-3.25,0.12,-0.56,3.30
3.953,-3.39,0.08,-0.73,3.47
3.963,-3.46,0.01,-0.75,3.54
3.974,-3.49,-0.13,-0.74,3.57
3.983,-3.28,-0.43,-0.69,3.38
3.993,-2.87,-0.51,-0.65,2.99
4.004,-2.55,-0.32,-0.26,2.58
4.013,-2.27,-0.28,0.10,2.29
4.023,-1.98,-0.25,0.09,2.00
4.034,-1.77,-0.08,0.01,1.77
4.043,-1.81,0.26,0.30,1.86
4.053,-2.24,0.16,0.78,2.37
4.063,-2.69,-0.66,0.70,2.86
4.074,-2.81,-1.70,0.41,3.31
4.083,-2.38,-2.47,0.13,3.43
4.094,-1.38,-2.17,-0.35,2.60
4.103,-0.32,-0.65,-0.46,0.86
4.114,0.50,0.54,-0.65,0.98
4.124,1.53,1.16,-0.61,2.01
4.134,2.28,1.28,-1.14,2.85
4.144,2.63,1.75,-0.20,3.16
4.154,2.00,2.24,1.83,3.52
4.164,0.86,1.72,3.18,3.72
4.174,0.03,0.47,3.26,3.29
4.184,-0.66,-0.73,3.42,3.56
4.194,-1.45,-1.69,3.75,4.36
4.204,-1.88,-2.34,3.67,4.74
4.214,-1.21,-2.40,2.77,3.86
4.224,1.67,-2.03,0.32,2.65
4.234,5.99,-1.73,-0.59,6.26
4.244,9.13,-1.83,-1.04,9.37
4.254,9.22,-1.06,-2.25,9.55
4.264,5.47,0.49,-2.68,6.11
4.274,2.13,2.01,-1.47,3.28
4.284,0.40,0.51,0.93,1.13
4.294,-0.38,-3.01,0.75,3.12
4.304,-0.74,-5.31,-0.79,5.42
4.314,-1.04,-6.13,-1.80,6.47
4.324,-1.19,-5.85,-1.67,6.20
4.334,-1.06,-5.23,-2.55,5.91
4.344,-0.08,-4.16,-4.06,5.81
4.354,1.11,-2.51,-4.15,4.98
4.364,2.05,-0.96,-3.68,4.32
4.374,3.00,0.43,-3.23,4.43
4.384,2.98,1.52,-2.58,4.22
4.394,1.61,1.77,-1.94,3.08
4.404,0.00,1.12,-1.84,2.15
4.414,-1.11,0.29,-1.88,2.20
4.424,-1.61,-0.52,-1.90,2.55
4.434,-1.74,-1.12,-1.43,2.52
4.444,-1.84,-1.90,-1.04,2.85
4.454,-1.78,-2.70,-0.95,3.37
4.464,-1.56,-3.16,-1.03,3.67
4.474,-1.62,-3.23,-1.12,3.79
4.484,-1.80,-3.12,-1.01,3.74
4.494,-1.86,-3.12,-1.01,3.77
4.504,-1.77,-2.85,-1.03,3.51
4.514,-1.77,-2.57,-1.01,3.28
4.524,-1.81,-2.18,-1.05,3.02
4.534,-1.77,-1.80,-0.89,2.68
4.544,-1.55,-1.71,-0.81,2.44
4.554,-1.19,-1.64,-0.64,2.12
4.564,-1.00,-1.70,-0.49,2.03
4.574,-0.76,-1.66,-0.28,1.85
4.584,-0.44,-1.65,-0.13,1.71
4.594,-0.16,-1.70,0.13,1.71
4.604,-0.08,-1.77,0.31,1.80
4.614,-0.29,-1.71,0.18,1.74
4.624,-0.44,-1.61,0.06,1.67
4.634,-0.21,-1.63,0.09,1.65
4.644,0.18,-1.74,0.29,1.78
4.654,0.42,-1.72,0.61,1.87
4.664,0.48,-1.67,0.87,1.95
4.674,0.51,-1.80,1.01,2.12
4.684,0.76,-1.85,1.12,2.29
4.694,1.14,-1.68,1.19,2.36
4.704,1.50,-1.59,1.39,2.59
4.714,1.60,-1.48,1.76,2.80
4.724,1.27,-1.49,1.76,2.63
4.734,0.74,-1.70,1.52,2.40
4.744,0.14,-2.16,1.65,2.72
4.754,-0.27,-2.84,1.77,3.36
4.764,-0.62,-3.13,1.97,3.75
4.774,-1.04,-2.97,2.17,3.82
4.784,-1.26,-2.38,2.46,3.65
4.794,-1.45,-1.98,2.42,3.45
4.804,-1.15,-3.06,1.03,3.43
4.814,1.00,-4.36,-1.29,4.66
4.824,3.72,-3.25,-1.99,5.32
4.834,4.26,-1.37,-2.31,5.04
4.844,3.60,-0.35,-3.42,4.98
4.854,3.13,0.33,-4.93,5.85
4.864,2.20,1.06,-5.40,5.93
4.874,0.50,1.91,-5.18,5.54
4.884,-0.55,2.18,-4.73,5.24
4.894,-0.15,2.07,-3.59,4.14
4.904,1.41,1.71,-2.29,3.19
4.914,3.01,0.98,-1.26,3.40
4.924,3.85,-0.22,-0.68,3.91
4.934,3.91,-1.37,-0.51,4.18
4.944,3.33,-2.14,-0.20,3.96
4.954,2.59,-2.81,0.07,3.82
4.964,1.68,-3.46,0.39,3.86
4.974,0.66,-3.94,0.44,4.02
4.984,0.34,-4.05,0.32,4.08
4.994,0.27,-3.76,0.03,3.77
5.004,0.08,-2.96,-0.24,2.97
5.014,0.00,-2.07,-0.60,2.16
5.024,-0.09,-1.30,-0.94,1.61
5.034,-0.11,-0.90,-1.11,1.43
5.044,0.02,-0.95,-1.20,1.53
5.054,0.39,-1.33,-1.18,1.82
5.064,0.72,-1.76,-1.10,2.20
5.074,0.57,-2.07,-1.21,2.46
5.084,0.26,-2.23,-1.30,2.60
5.094,-0.13,-2.14,-1.50,2.62
5.104,-0.61,-1.77,-1.42,2.35
5.114,-1.00,-1.37,-1.12,2.03
5.124,-1.31,-1.07,-0.90,1.92
5.134,-1.53,-0.94,-0.86,1.99
5.144,-1.62,-1.16,-0.80,2.15
5.154,-1.44,-1.59,-0.88,2.32
5.164,-1.22,-1.93,-1.09,2.53
5.174,-0.99,-1.85,-1.19,2.41
5.184,-1.02,-1.72,-1.62,2.57
5.194,-1.06,-1.46,-2.01,2.71
5.204,-1.26,-0.99,-2.19,2.72
5.214,-1.69,-0.62,-2.42,3.02
5.224,-2.02,-0.37,-2.55,3.27
5.235,-2.21,-0.16,-2.44,3.29
5.244,-2.05,-0.21,-2.21,3.02
5.255,-1.40,-0.23,-1.56,2.11
5.264,-0.75,-0.37,-0.63,1.05
5.275,-0.14,-0.25,0.12,0.31
5.285,0.31,-0.19,0.56,0.67
5.295,0.52,-0.50,0.63,0.96
5.305,1.11,-0.41,0.38,1.24
5.315,1.50,-0.34,1.15,1.92
5.325,0.90,-1.48,1.80,2.50
5.335,0.52,-2.57,0.65,2.70
5.344,0.40,-2.86,0.49,2.93
5.355,0.15,-2.95,1.35,3.25
5.364,-0.08,-3.09,2.20,3.80
5.375,-0.16,-3.64,2.97,4.70
5.385,-0.08,-4.54,3.32,5.63
5.395,-0.06,-5.21,3.51,6.28
5.405,-0.47,-5.63,4.22,7.05
5.415,-1.28,-5.80,4.41,7.40
5.425,-1.34,-5.34,4.68,7.23
5.435,-1.04,-4.25,3.26,5.45
5.445,1.42,-2.07,2.18,3.32
5.455,5.14,-0.67,0.19,5.19
5.465,7.57,-1.05,-1.10,7.72
5.475,6.66,-1.60,-4.89,8.42
5.485,2.60,-0.37,-6.23,6.76
5.495,-0.67,1.62,-4.91,5.21
5.505,-1.43,1.69,-4.35,4.88
5.515,-0.46,0.18,-4.69,4.71
5.525,1.06,-0.51,-4.30,4.45
5.535,0.34,-0.99,-3.59,3.74
5.545,-0.71,-0.77,-3.20,3.37
5.555,-0.99,0.23,-2.72,2.90
5.565,-0.42,1.35,-2.14,2.57
5.575,0.39,1.96,-1.82,2.70
5.585,1.22,2.43,-1.70,3.21
5.595,1.50,2.89,-1.52,3.60
5.605,1.20,2.87,-1.04,3.28
5.615,0.23,2.30,-0.11,2.31
5.625,-1.04,0.63,0.45,1.30
5.635,-1.63,-1.26,0.68,2.17
5.645,-1.84,-2.87,0.64,3.47
5.655,-1.99,-3.82,0.49,4.34
5.665,-1.83,-4.07,0.27,4.47
5.675,-1.42,-3.75,0.34,4.02
5.685,-1.32,-3.25,0.28,3.52
5.695,-1.31,-2.61,0.07,2.92
5.705,-1.14,-1.73,-0.13,2.07
5.715,-1.10,-0.87,-0.16,1.41
5.725,-1.28,-0.29,-0.16,1.32
5.735,-1.63,-0.05,-0.33,1.66
5.745,-1.71,0.05,-0.40,1.75
5.755,-1.64,0.06,-0.45,1.70
5.765,-1.70,-0.07,-0.41,1.75
5.775,-1.88,-0.27,-0.20,1.91
5.785,-1.71,-0.38,0.12,1.76
5.795,-1.41,-0.61,0.40,1.59
5.805,-1.02,-0.93,0.77,1.58
5.815,-0.74,-1.27,1.17,1.88
5.825,-0.78,-1.64,1.47,2.33
5.835,-1.26,-1.89,1.63,2.80
5.845,-1.81,-1.86,1.18,2.85
5.855,-1.79,-1.56,0.90,2.55
5.865,-1.42,-1.37,0.95,2.19
5.875,-0.90,-1.25,0.82,1.74
5.885,-0.40,-0.94,0.41,1.10
5.895,0.17,-0.84,0.02,0.86
5.905,1.05,-0.99,0.31,1.48
5.915,2.20,-1.24,0.85,2.66
5.925,2.95,-1.41,1.58,3.63
5.935,3.19,-1.79,1.93,4.14
5.945,2.70,-2.34,2.12,4.15
5.955,1.52,-3.51,2.45,4.54
5.965,0.70,-4.68,2.42,5.31
5.975,0.12,-5.22,2.49,5.79
5.985,-0.31,-5.25,2.55,5.85
5.995,-0.32,-4.79,2.24,5.30
6.005,0.55,-3.86,1.85,4.32
6.015,2.08,-2.46,1.14,3.42
6.025,3.21,-1.29,-0.26,3.46
6.035,3.79,-0.82,-1.31,4.10
6.045,4.31,-0.56,-2.28,4.90
6.055,4.02,0.94,-3.72,5.55
6.065,2.51,2.79,-5.69,6.82
6.075,1.13,4.23,-6.80,8.09
6.085,-0.22,5.73,-6.58,8.73
6.095,-0.98,6.55,-5.23,8.43
6.105,-0.77,6.53,-3.71,7.54
6.115,0.17,5.56,-2.55,6.12
6.125,1.48,3.45,-1.52,4.05
6.135,3.01,1.13,-0.88,3.33
6.145,3.84,-0.19,-0.63,3.90
6.155,4.27,-0.77,-0.01,4.33
6.165,4.20,-0.71,0.26,4.27
6.175,3.31,-0.33,0.05,3.32
6.185,2.27,-0.15,-0.80,2.41
6.195,1.20,0.38,-0.73,1.45
6.205,-0.00,0.74,-0.92,1.18
6.215,-1.05,0.98,-1.04,1.77
6.225,-1.76,1.03,-0.97,2.27
6.235,-2.00,0.77,-0.85,2.31
6.245,-1.90,0.40,-0.73,2.08
6.255,-1.50,0.22,-0.70,1.67
6.265,-1.09,0.30,-0.66,1.31
6.275,-0.89,0.34,-0.64,1.15
6.285,-1.01,0.42,-0.47,1.19
6.295,-1.61,0.43,-0.26,1.69
6.305,-2.30,0.25,-0.49,2.37
6.315,-2.88,0.08,-0.53,2.93
6.325,-3.32,0.07,0.05,3.32
6.335,-3.52,0.02,0.95,3.64
6.345,-3.50,-0.42,0.95,3.65
6.355,-3.39,-0.76,0.50,3.51
6.365,-3.35,-0.74,0.43,3.45
6.375,-3.63,-0.47,0.54,3.70
6.385,-4.15,-0.08,0.74,4.22
6.395,-4.54,0.31,1.39,4.76
6.405,-4.44,0.69,1.84,4.86
6.416,-4.09,0.79,2.05,4.64
6.425,-3.74,0.43,1.67,4.12
6.435,-3.69,0.07,0.99,3.82
6.445,-4.13,-0.22,0.42,4.15
6.455,-5.15,-0.67,-0.44,5.21
6.465,-6.08,-1.14,-1.59,6.39
6.476,-6.20,-1.41,-1.44,6.52
6.485,-5.54,-1.68,-1.28,5.93
6.495,-4.12,-1.80,-0.63,4.54
6.505,-2.30,-1.55,-0.31,2.79
6.515,-0.71,-0.80,-0.05,1.07
6.525,0.51,0.10,0.15,0.54
6.536,1.01,1.00,0.30,1.45
6.546,0.74,1.56,0.60,1.83
6.556,0.26,1.81,0.89,2.03
6.566,-0.26,1.53,1.06,1.88
6.576,-0.70,1.02,1.15,1.69
6.586,-0.43,0.76,1.04,1.36
6.596,1.02,1.01,0.13,1.45
6.606,3.24,1.89,-1.03,3.89
6.616,5.18,2.88,-0.80,5.98
6.626,5.67,2.54,0.32,6.22
6.636,5.81,0.94,0.51,5.91
6.646,6.52,-0.60,-2.33,6.95
6.656,7.84,-0.26,-3.88,8.75
6.666,8.53,0.70,-3.31,9.18
6.676,8.01,1.10,-1.63,8.25
6.686,6.61,0.04,-1.26,6.73
6.696,6.11,-0.79,-0.84,6.21
6.706,5.54,-1.25,0.33,5.69
6.716,3.56,-1.41,0.93,3.94
6.726,1.03,-0.57,1.34,1.78
6.736,-1.11,0.67,1.69,2.13
6.746,-1.96,1.55,1.61,2.98
6.756,-1.63,1.85,1.23,2.75
6.766,-0.77,1.15,0.94,1.68
6.777,0.55,-0.14,0.52,0.77
6.787,1.75,-1.30,-0.04,2.18
6.796,2.02,-1.97,-0.65,2.90
6.806,1.70,-1.88,-1.38,2.89
6.816,0.83,-0.87,-1.96,2.30
6.826,-0.52,0.57,-2.44,2.56
6.836,-1.65,1.82,-2.71,3.65
6.846,-2.40,2.45,-2.59,4.29
6.856,-2.78,2.51,-2.28,4.39
6.866,-2.71,2.22,-2.02,4.04
6.876,-2.40,1.69,-1.76,3.42
6.886,-1.85,1.08,-1.37,2.55
6.896,-1.22,0.45,-0.97,1.63
6.906,-0.77,-0.10,-0.63,1.00
6.916,-0.58,-0.54,-0.21,0.82
6.926,-0.69,-0.99,0.14,1.21
6.936,-0.90,-1.31,0.47,1.65
6.946,-1.10,-1.53,0.89,2.08
6.956,-1.12,-1.87,1.15,2.46
6.966,-1.25,-1.95,1.35,2.68
6.976,-1.48,-1.86,1.51,2.81
6.986,-1.70,-1.94,1.53,3.00
6.996,-2.24,-1.93,1.26,3.21
7.006,-3.21,-1.82,1.14,3.86
7.016,-4.33,-1.94,1.35,4.93
7.026,-5.06,-2.07,0.95,5.55
7.036,-5.33,-1.88,-0.56,5.68
7.046,-5.48,-1.36,-1.92,5.96
7.056,-5.59,-0.56,-2.10,5.99
7.066,-5.07,0.29,-1.70,5.36
7.076,-3.91,0.66,-1.96,4.43
7.086,-2.78,0.52,-1.60,3.25
7.096,-2.15,0.21,-0.40,2.19
7.106,-1.48,-0.26,0.60,1.62
7.116,-0.44,-1.03,1.36,1.76
7.126,0.51,-2.38,1.22,2.72
7.136,1.26,-3.26,1.20,3.69
7.146,1.46,-2.83,1.30,3.44
7.156,0.93,-1.69,0.95,2.15
7.166,0.42,-0.75,0.79,1.17
7.176,0.52,-0.23,0.08,0.57
7.186,1.17,0.30,-1.24,1.73
7.196,1.74,1.08,-2.39,3.15
7.206,2.06,2.39,-2.50,4.03
7.216,1.61,3.15,-2.68,4.44
7.226,0.74,3.11,-2.41,4.00
7.236,0.04,2.86,-1.21,3.11
7.246,-0.01,2.66,0.04,2.66
7.256,1.32,2.16,0.02,2.53
7.266,3.12,1.33,-0.27,3.41
7.276,4.49,0.71,-0.52,4.58
7.286,5.09,0.34,-0.44,5.12
7.296,4.91,0.39,0.64,4.97
7.306,5.17,0.93,1.89,5.58
7.316,6.44,2.11,2.32,7.16
7.326,7.50,2.93,2.23,8.36
7.336,7.40,2.22,1.64,7.90
7.346,5.62,0.75,1.19,5.80
7.356,2.72,-0.15,1.24,2.99
7.366,0.04,-0.55,1.19,1.31
7.376,-1.73,-0.93,0.86,2.15
7.386,-2.64,-1.28,0.69,3.01
7.396,-2.99,-1.59,0.71,3.46
7.406,-3.03,-1.63,0.60,3.49
7.416,-3.12,-1.35,0.42,3.43
7.426,-3.37,-1.02,0.19,3.53
7.436,-3.73,-0.75,0.03,3.80
7.446,-3.76,-0.43,0.36,3.80
7.456,-3.24,-0.05,0.92,3.37
7.466,-2.67,0.09,0.94,2.84
7.476,-2.36,-0.20,0.57,2.44
7.486,-1.97,-0.22,0.27,2.00
7.496,-2.00,0.00,-0.18,2.01
7.506,-2.47,0.16,-0.35,2.50
7.516,-3.11,0.54,-0.44,3.18
7.526,-3.42,1.22,-0.96,3.76
7.536,-3.46,1.76,-1.66,4.22
7.546,-3.77,1.78,-1.45,4.42
7.556,-4.23,1.20,-1.11,4.54
7.566,-3.84,0.64,-1.30,4.10
7.576,-3.01,0.36,-1.53,3.39
7.586,-2.51,0.20,-1.60,2.98
7.596,-2.15,0.21,-1.41,2.58
7.606,-2.12,0.33,-0.72,2.26
7.616,-2.52,0.51,0.01,2.57
7.626,-3.15,0.79,0.45,3.28
7.637,-3.39,1.05,0.84,3.65
7.646,-3.11,0.89,1.27,3.47
7.656,-2.50,0.52,1.52,2.97
7.666,-1.13,0.68,1.25,1.81
7.676,0.66,1.55,0.61,1.79
7.687,2.45,2.50,0.04,3.50
7.697,4.03,2.80,0.80,4.97
7.706,5.18,2.36,2.23,6.12
7.717,6.40,1.14,-0.34,6.50
7.727,8.20,0.48,-0.64,8.24
7.737,8.84,0.30,-0.93,8.89
7.746,7.72,-0.12,-1.45,7.85
7.757,4.69,-0.98,0.29,4.80
7.767,1.84,-1.76,0.97,2.73
7.777,1.99,-2.34,2.31,3.84
7.787,4.69,-3.55,2.48,6.39
7.796,7.67,-4.26,1.81,8.96
7.807,8.17,-3.21,1.92,8.99
7.817,4.82,-1.43,2.10,5.45
7.827,1.46,0.29,1.84,2.37
7.837,-0.31,1.37,1.11,1.80
7.847,-0.85,1.97,0.52,2.21
7.857,-0.61,1.93,0.07,2.03
7.867,0.18,1.27,-0.20,1.30
7.877,1.01,0.57,-0.50,1.27
7.887,1.43,0.30,-0.86,1.69
7.897,1.18,0.25,-1.28,1.76
7.907,0.53,0.26,-1.52,1.63
7.917,-0.26,0.14,-1.65,1.67
7.927,-0.98,-0.09,-1.57,1.86
7.937,-1.55,-0.29,-1.51,2.18
7.947,-2.00,-0.32,-1.48,2.50
7.957,-2.21,-0.17,-1.34,2.59
7.967,-2.34,-0.09,-1.19,2.63
7.977,-2.35,-0.16,-1.04,2.58
7.987,-2.20,-0.34,-0.94,2.42
7.997,-2.03,-0.55,-0.84,2.26
8.007,-1.95,-0.64,-0.89,2.23
8.017,-1.95,-0.77,-1.14,2.39
8.027,-2.17,-0.87,-1.45,2.75
8.037,-2.53,-0.67,-1.59,3.06
8.047,-3.01,-0.36,-1.26,3.28
8.057,-3.43,-0.21,-0.62,3.49
8.067,-3.49,-0.33,-0.04,3.50
8.077,-2.78,-0.65,0.21,2.86
8.087,-1.66,-1.12,0.82,2.17
8.097,-0.81,-2.11,1.12,2.52
8.107,-0.31,-2.83,0.77,2.95
8.117,-1.02,-2.91,-0.04,3.08
8.127,-2.51,-2.30,-0.52,3.44
8.137,-4.13,-1.22,-0.13,4.31
8.147,-5.58,-0.53,0.07,5.61
8.157,-5.94,-0.28,0.21,5.95
8.167,-5.07,-0.36,0.96,5.17
8.177,-3.59,-0.85,1.77,4.09
8.187,-1.64,-1.46,2.02,2.99
8.197,0.12,-1.95,2.07,2.84
8.207,1.24,-2.02,1.97,3.08
8.217,1.59,-1.72,0.98,2.54
8.227,1.11,-1.01,0.28,1.52
8.237,-0.07,-0.10,-0.08,0.15
8.247,-0.92,0.48,-0.23,1.07
8.257,-0.79,0.36,-0.18,0.89
8.267,0.41,-0.17,-0.29,0.53
8.277,2.00,-0.50,-0.34,2.09
8.287,3.28,-0.46,-0.10,3.31
8.297,3.49,-0.38,-0.64,3.57
8.307,2.94,0.01,-1.09,3.14
8.317,2.14,0.75,-0.91,2.45
8.327,1.94,1.42,-0.67,2.49
8.337,2.16,1.88,-0.26,2.88
8.347,2.21,1.41,-0.71,2.71
8.357,1.94,0.75,-1.22,2.41
8.367,1.31,0.50,-1.25,1.88
8.377,0.98,0.60,-1.14,1.62
8.387,1.45,0.88,-0.95,1.94
8.397,2.98,1.27,0.28,3.25
8.407,4.82,1.90,1.48,5.39
8.417,6.38,2.66,2.07,7.22
8.427,7.12,2.82,2.05,7.93
8.437,6.72,2.16,1.49,7.22
8.447,4.72,1.15,1.00,4.96
8.457,2.06,0.34,0.88,2.27
8.467,0.01,-0.23,0.55,0.60
8.477,-1.38,-0.71,0.27,1.58
8.487,-2.20,-1.03,0.21,2.43
8.497,-2.65,-1.16,0.18,2.90
8.507,-2.92,-0.83,0.27,3.05
8.517,-3.02,-0.13,0.38,3.05
8.527,-3.10,0.41,0.34,3.14
8.537,-3.11,0.72,0.34,3.21
8.547,-2.97,0.88,0.28,3.11
8.557,-2.73,0.97,0.50,2.94
8.567,-2.41,0.83,0.74,2.66
8.577,-1.99,0.42,1.01,2.27
8.587,-1.48,0.04,0.99,1.78
8.597,-1.09,-0.11,0.62,1.26
8.607,-1.10,0.13,0.21,1.12
8.617,-1.62,0.75,-0.25,1.80
8.627,-2.41,1.40,-0.82,2.90
8.637,-3.40,1.79,-1.29,4.06
8.647,-4.24,1.65,-1.40,4.76
8.657,-4.67,1.16,-1.52,5.04
8.667,-4.44,0.73,-1.71,4.81
8.677,-3.55,0.51,-1.92,4.06
8.687,-2.03,0.60,-1.77,2.76
8.697,-0.71,0.64,-1.61,1.88
8.707,-0.22,0.51,-1.34,1.45
8.717,-0.62,0.48,-0.94,1.23
8.727,-1.77,0.73,-0.52,1.99
8.737,-2.69,0.94,0.01,2.85
8.747,-3.23,0.91,0.64,3.42
8.757,-3.56,0.64,1.18,3.80
8.767,-3.59,0.29,1.58,3.93
8.777,-3.15,0.13,1.83,3.64
8.787,-2.47,-0.03,2.03,3.20
8.797,-1.79,-0.23,2.06,2.74
8.808,-1.05,-0.26,1.94,2.22
8.817,-0.07,-0.00,1.80,1.80
8.827,0.94,0.48,1.02,1.46
8.837,2.45,1.06,1.01,2.85
8.847,3.91,1.27,1.63,4.42
8.858,5.36,1.01,0.29,5.46
8.867,6.40,0.52,-1.03,6.50
8.878,6.78,0.25,-1.53,6.95
8.887,5.53,0.25,-1.21,5.67
8.897,3.21,-0.06,0.46,3.24
8.907,3.46,-0.78,1.27,3.76
8.917,7.31,-2.14,2.17,7.92
8.927,11.43,-4.19,2.92,12.52
8.938,11.32,-4.14,2.64,12.34
8.947,5.23,-2.16,2.82,6.32
8.958,0.06,-0.16,2.10,2.11
8.968,-2.19,1.16,1.41,2.85
8.977,-3.22,1.82,1.34,3.94
8.988,-2.86,1.93,1.21,3.66
8.998,-1.49,1.72,1.06,2.51
9.008,0.08,1.16,0.99,1.53
9.018,1.19,0.45,0.38,1.33
9.027,1.98,-0.00,-0.28,2.00
9.038,2.31,-0.42,-0.85,2.50
9.048,1.19,-0.55,-1.40,1.92
9.058,-0.31,-0.35,-1.72,1.78
9.068,-1.65,-0.38,-1.91,2.55
9.078,-2.38,-0.35,-2.04,3.15
9.088,-2.37,-0.17,-2.04,3.14
9.098,-2.18,-0.04,-1.86,2.86
9.108,-2.13,0.08,-1.54,2.63
9.118,-1.99,0.24,-1.27,2.37
9.128,-1.50,0.26,-1.03,1.84
9.138,-0.80,0.04,-0.82,1.15
9.148,-0.14,-0.25,-0.59,0.66
9.158,0.27,-0.53,-0.25,0.64
9.168,0.17,-0.75,-0.04,0.77
9.178,-0.42,-0.87,-0.03,0.96
9.188,-1.33,-0.97,-0.10,1.65
9.198,-2.42,-1.23,-0.20,2.72
9.208,-3.24,-1.73,-0.33,3.69
9.218,-3.55,-2.13,-0.26,4.14
9.228,-3.38,-2.13,0.16,3.99
9.238,-2.59,-1.96,0.00,3.25
9.248,-1.79,-1.36,-0.34,2.27
9.258,-2.30,-0.89,-0.39,2.49
9.268,-3.69,-0.69,-0.23,3.76
9.278,-5.11,-0.87,-0.40,5.20
9.288,-5.94,-1.12,-0.69,6.08
9.298,-5.83,-1.18,-0.38,5.96
9.308,-4.62,-0.99,0.26,4.73
9.318,-3.05,-0.76,0.23,3.15
9.328,-1.64,-0.51,0.41,1.77
9.338,-0.38,-0.30,0.94,1.06
9.348,0.78,-0.23,1.10,1.36
9.358,1.55,-0.20,0.66,1.69
9.368,1.23,-0.15,0.00,1.24
9.378,-0.03,0.04,-0.38,0.38
9.388,-1.24,0.09,-1.17,1.71
9.398,-1.72,0.05,-2.31,2.88
9.408,-1.70,0.60,-2.60,3.16
9.418,-1.61,1.07,-2.18,2.92
9.428,-0.79,1.44,-0.79,1.82
9.438,0.49,1.31,0.09,1.40
9.448,1.81,0.69,0.24,1.96
9.458,3.31,0.09,0.53,3.35
9.468,4.27,0.04,0.74,4.34
9.478,4.37,-0.33,0.19,4.39
9.488,4.07,-0.98,-0.51,4.22
9.498,3.83,-0.91,-0.41,3.96
9.508,4.02,0.02,0.31,4.03
9.518,4.97,0.95,0.55,5.09
9.528,6.50,1.94,0.73,6.83
9.538,7.82,3.05,1.42,8.52
9.548,8.26,3.63,1.73,9.19
9.558,7.45,3.87,1.74,8.58
9.568,5.50,3.53,1.53,6.71
9.578,3.42,2.57,1.34,4.48
9.588,1.49,1.20,1.35,2.34
9.598,-0.14,-0.14,1.28,1.30
9.608,-1.37,-1.24,1.18,2.19
9.618,-2.29,-2.02,1.07,3.23
9.628,-3.00,-2.45,0.97,4.00
9.638,-3.47,-2.55,0.83,4.38
9.648,-3.72,-2.36,0.62,4.45
9.658,-3.83,-1.95,0.54,4.33
9.668,-3.69,-1.26,0.60,3.94
9.678,-3.43,-0.45,0.62,3.51
9.688,-3.20,0.28,0.50,3.25
9.698,-3.15,0.68,0.24,3.23
9.708,-2.99,0.76,0.15,3.09
9.718,-2.92,0.63,0.09,2.99
9.728,-3.04,0.54,-0.15,3.10
9.738,-3.27,0.90,-0.54,3.43
9.748,-3.93,1.20,-1.15,4.27
9.758,-4.41,1.09,-1.66,4.83
9.768,-4.51,0.72,-1.18,4.71
9.778,-4.02,0.43,-0.78,4.12
9.788,-3.18,0.39,-0.89,3.32
9.798,-2.19,0.51,-0.92,2.43
9.808,-0.82,0.88,-0.95,1.53
9.818,-0.05,1.27,-0.94,1.58
9.828,0.11,1.76,-1.09,2.08
9.838,-0.42,2.15,-1.17,2.49
9.848,-1.67,1.90,-0.82,2.66
9.858,-2.90,1.00,-0.23,3.08
9.868,-3.59,-0.16,0.40,3.61
9.878,-3.77,-0.77,0.96,3.97
9.888,-3.95,-1.06,1.57,4.38
9.898,-3.85,-1.41,2.12,4.61
9.908,-3.58,-1.76,2.79,4.87
9.918,-2.65,-1.65,2.83,4.22
9.928,-0.98,-0.99,2.41,2.78
9.938,1.31,-0.23,1.07,1.71
9.948,3.59,0.41,0.52,3.65
9.958,5.45,0.72,0.53,5.53
9.968,6.44,0.53,-1.83,6.71
9.978,7.44,0.82,-2.48,7.89
9.988,7.85,1.78,-2.96,8.58
9.998,6.78,2.71,-1.81,7.53
10.008,4.24,2.04,-0.70,4.76
10.018,2.77,0.98,-0.04,2.94
10.028,4.06,0.27,0.86,4.16
10.038,7.28,-0.89,1.98,7.60
10.048,9.93,-2.11,2.53,10.47
10.058,9.20,-2.10,2.56,9.78
10.069,4.89,-1.22,2.35,5.55
10.078,1.54,-0.33,1.93,2.49
10.089,-0.09,0.52,1.34,1.44
10.099,-0.98,1.14,0.76,1.69
10.108,-1.25,1.47,0.47,1.99
10.119,-0.93,1.26,0.44,1.63
10.128,-0.29,0.70,0.28,0.80
10.138,0.32,0.08,-0.06,0.34
10.148,0.48,-0.18,-0.54,0.74
10.159,0.20,-0.05,-1.10,1.12
10.168,-0.27,0.16,-1.62,1.64
10.178,-0.80,0.36,-1.99,2.18
10.189,-1.37,0.54,-2.10,2.57
10.199,-1.87,0.66,-2.02,2.83
10.208,-2.07,0.72,-1.81,2.84
10.219,-2.26,0.66,-1.44,2.76
10.229,-2.55,0.44,-1.20,2.85
10.239,-2.55,0.24,-1.05,2.77
10.249,-2.40,0.09,-0.98,2.59
10.259,-2.17,-0.07,-0.92,2.36
10.269,-1.98,-0.21,-0.93,2.20
10.279,-2.09,-0.36,-0.87,2.29
10.288,-2.54,-0.52,-0.78,2.71
10.299,-3.00,-0.58,-0.67,3.13
10.309,-2.86,-0.64,-0.26,2.95
10.319,-1.65,-0.89,0.55,1.95
10.329,0.44,-1.46,1.39,2.06
10.339,2.63,-2.10,1.66,3.76
10.349,3.84,-2.55,1.52,4.86
10.359,2.89,-2.58,1.15,4.04
10.369,-0.26,-2.36,0.10,2.37
10.379,-3.79,-1.88,-0.48,4.25
10.389,-6.51,-1.29,-0.27,6.64
10.399,-8.02,-1.06,-0.15,8.09
10.409,-8.14,-0.94,-0.40,8.20
10.419,-7.20,-0.60,-0.42,7.23
10.429,-5.73,-0.47,-0.09,5.75
10.439,-3.63,-0.75,-0.19,3.71
10.449,-1.68,-0.86,-0.15,1.89
10.459,-0.57,-0.90,0.61,1.23
10.469,0.24,-1.21,1.03,1.61
10.479,1.03,-1.55,1.00,2.11
10.489,1.39,-1.86,0.97,2.52
10.499,0.94,-2.23,0.93,2.59
10.509,0.28,-2.14,0.54,2.22
10.519,-0.33,-1.52,-0.08,1.55
10.529,-0.70,-0.70,-0.61,1.16
10.539,-0.46,0.48,-0.92,1.13
10.549,0.42,1.83,-0.76,2.02
10.559,1.55,2.49,-0.83,3.05
10.569,2.38,2.73,-0.71,3.69
10.579,2.58,2.63,-0.18,3.69
10.589,2.40,2.05,-0.03,3.16
10.599,2.22,1.49,0.05,2.68
10.609,2.56,1.18,-0.15,2.82
10.619,2.85,0.96,-0.26,3.01
10.629,3.04,0.88,-0.09,3.17
10.639,3.47,1.16,0.36,3.68
10.649,4.55,1.66,0.90,4.92
10.659,6.31,2.08,1.11,6.74
10.669,7.72,2.19,1.05,8.09
10.679,8.25,1.67,0.69,8.45
10.689,7.41,1.13,0.72,7.53
10.699,4.98,1.10,0.94,5.19
10.709,2.51,1.41,0.43,2.91
10.719,0.62,1.41,-0.02,1.54
10.729,-0.66,1.16,0.13,1.34
10.739,-1.51,0.74,0.54,1.76
10.749,-1.88,0.13,0.84,2.07
10.759,-1.87,-0.42,0.88,2.11
10.769,-1.80,-0.80,0.80,2.13
10.779,-1.64,-0.99,0.81,2.08
10.789,-1.37,-1.03,0.81,1.89
10.799,-1.19,-0.97,0.76,1.71
10.809,-1.35,-0.77,0.66,1.69
10.819,-1.74,-0.44,0.55,1.88
10.829,-2.23,-0.02,0.44,2.27
10.839,-2.56,0.32,0.42,2.62
10.849,-2.65,0.57,0.38,2.74
10.859,-2.48,0.70,0.15,2.58
10.869,-2.25,0.78,-0.28,2.39
10.879,-2.03,0.71,-0.54,2.22
10.889,-1.90,0.66,-0.54,2.08
10.899,-1.80,0.78,-0.34,1.99
10.909,-2.06,0.79,-0.26,2.22
10.919,-2.49,0.71,-0.31,2.60
10.929,-2.74,0.88,-0.48,2.92
10.939,-3.15,1.03,-0.91,3.44
10.949,-3.65,0.77,-1.51,4.03
10.959,-3.90,0.38,-1.83,4.32
10.969,-4.26,-0.06,-1.40,4.49
10.979,-4.20,-0.45,-0.82,4.30
10.989,-3.04,-0.53,-0.47,3.12
10.999,-1.74,-0.41,-0.26,1.81
11.009,-0.95,-0.03,-0.06,0.95
11.019,-0.63,0.56,-0.16,0.86
11.029,-0.92,1.11,-0.37,1.49
11.039,-2.12,1.03,-0.52,2.42
11.049,-3.21,0.52,-0.48,3.29
11.059,-3.78,0.02,0.10,3.78
11.069,-3.84,-0.21,0.83,3.94
11.079,-3.54,-0.45,1.49,3.87
11.089,-2.82,-0.88,2.03,3.58
11.099,-1.79,-1.17,2.60,3.37
11.109,-0.82,-1.30,3.21,3.56
11.119,-0.20,-1.27,3.53,3.76
11.129,0.12,-0.99,3.28,3.43
11.139,0.63,-0.17,2.62,2.71
11.149,1.40,0.92,2.06,2.66
11.159,2.13,1.63,1.26,2.97
11.169,3.15,1.73,0.74,3.66
11.179,4.36,1.91,0.65,4.81
11.189,4.96,1.59,0.02,5.21
11.200,5.93,0.90,-0.68,6.03
11.209,6.52,0.16,-1.64,6.72
11.219,5.64,-0.19,-1.69,5.89
11.229,3.39,-0.72,-0.90,3.58
11.240,1.16,-1.04,-0.60,1.67
11.249,-0.39,-1.11,-0.24,1.20
11.259,-0.68,-1.33,0.68,1.64
11.269,1.78,-1.21,1.74,2.77
11.279,5.93,-1.76,2.18,6.56
11.289,10.27,-2.67,2.84,10.98
11.300,10.75,-2.59,2.87,11.43
11.309,5.51,-1.57,2.13,6.12
11.320,0.69,-0.28,1.34,1.53
11.329,-1.84,0.46,0.44,1.95
11.340,-3.30,1.00,-0.10,3.46
11.350,-3.57,1.14,-0.38,3.76
11.360,-2.44,0.69,-0.51,2.59
11.370,-0.74,0.30,-0.64,1.02
11.380,0.27,0.12,-0.82,0.87
11.390,0.87,0.13,-1.10,1.41
11.400,0.78,0.24,-1.34,1.56
11.409,0.19,0.31,-1.53,1.57
11.420,-0.42,0.38,-1.66,1.75
11.429,-0.85,0.47,-1.62,1.89
11.440,-1.18,0.39,-1.51,1.95
11.450,-1.52,0.20,-1.35,2.04
11.460,-1.77,0.03,-1.20,2.14
11.470,-1.98,-0.13,-1.03,2.24
11.480,-2.20,-0.34,-0.99,2.43
11.490,-2.16,-0.58,-0.88,2.40
11.500,-1.76,-0.90,-0.62,2.07
11.510,-1.17,-1.29,-0.28,1.77
11.520,-0.70,-1.56,0.11,1.72
11.530,-0.67,-1.71,0.29,1.86
11.540,-1.13,-1.80,0.36,2.16
11.550,-1.74,-1.98,0.46,2.68
11.560,-2.12,-2.25,0.69,3.17
11.570,-2.44,-2.47,1.09,3.64
11.580,-2.62,-2.65,1.41,3.99
11.590,-2.49,-2.78,1.70,4.10
11.600,-2.09,-2.74,1.90,3.94
11.610,-1.48,-2.54,1.82,3.46
11.620,-1.14,-2.37,1.55,3.05
11.630,-1.35,-2.13,1.41,2.89
11.640,-2.19,-1.88,1.32,3.18
11.650,-3.10,-1.59,0.72,3.56
11.660,-3.88,-1.43,0.51,4.16
11.670,-3.75,-1.46,0.43,4.05
11.680,-2.54,-1.36,0.72,2.97
11.690,-1.25,-1.44,1.15,2.22
11.700,-0.27,-1.51,1.02,1.84
11.710,0.08,-1.54,1.27,2.00
11.720,-0.05,-1.79,1.64,2.43
11.730,-0.13,-2.06,1.52,2.57
11.740,-0.09,-2.13,1.24,2.46
11.750,-0.28,-1.93,1.54,2.48
11.760,-0.61,-1.69,1.67,2.45
11.770,-0.54,-1.80,0.36,1.92
11.780,-0.35,-1.73,-1.45,2.28
11.790,0.25,-0.74,-2.46,2.58
11.800,1.41,1.46,-1.44,2.49
11.810,2.27,3.13,-0.83,3.96
11.820,2.94,3.11,-1.48,4.53
11.830,3.43,2.36,-1.81,4.54
11.840,3.83,2.27,-1.70,4.76
11.850,4.10,1.86,-1.73,4.82
11.860,4.28,0.75,-1.97,4.77
11.870,4.18,-0.08,-1.88,4.58
11.880,3.81,-0.32,-1.44,4.09
11.890,3.98,-0.13,-0.63,4.03
11.900,4.86,0.24,0.10,4.86
11.910,6.09,0.37,0.58,6.13
11.920,6.80,0.11,0.91,6.86
11.930,6.34,-0.46,0.97,6.43
11.940,4.97,-0.89,0.98,5.14
11.950,3.21,-1.01,1.11,3.55
11.960,1.80,-0.91,0.87,2.20
11.970,0.72,-0.82,0.60,1.24
11.980,-0.13,-1.05,0.37,1.12
11.990,-0.70,-1.47,0.17,1.63
12.000,-1.13,-1.89,0.07,2.21
12.010,-1.46,-2.24,0.04,2.67
12.020,-1.72,-2.47,-0.06,3.01
12.030,-1.91,-2.53,-0.24,3.17
12.040,-2.00,-2.35,-0.46,3.12
12.050,-1.95,-2.06,-0.73,2.93
12.060,-1.86,-1.65,-1.07,2.70
12.070,-1.88,-1.10,-1.29,2.53
12.080,-2.03,-0.59,-1.43,2.55
12.090,-2.13,-0.13,-1.51,2.62
12.101,-2.20,0.20,-1.53,2.69
12.110,-2.25,0.50,-1.43,2.71
12.120,-2.31,0.72,-1.38,2.78
12.130,-2.18,1.00,-1.25,2.70
12.141,-2.00,1.32,-0.94,2.57
12.150,-1.79,1.32,-0.83,2.37
12.160,-1.49,1.14,-0.81,2.05
12.170,-1.10,1.03,-0.42,1.57
12.180,-0.66,0.99,-0.10,1.19
12.190,-0.37,0.94,0.22,1.03
12.200,-0.13,0.94,0.56,1.10
12.210,0.12,0.83,0.21,0.87
12.220,0.01,0.59,-0.62,0.85
12.230,-0.10,0.57,-0.15,0.59
12.240,0.43,0.77,0.79,1.18
12.250,1.08,0.74,1.68,2.13
12.260,1.32,0.54,1.93,2.40
12.270,1.91,1.04,1.52,2.65
12.280,1.82,1.22,1.53,2.67
12.290,0.78,0.47,1.33,1.61
12.300,0.05,-0.16,0.58,0.60
12.310,-0.49,-0.45,0.46,0.81
12.320,-1.10,-0.39,0.95,1.51
12.330,-1.61,-0.30,1.63,2.32
12.340,-1.95,-0.50,2.10,2.91
12.350,-2.10,-1.04,2.28,3.27
12.360,-2.12,-1.77,2.13,3.49
12.370,-1.09,-2.40,1.18,2.89
12.380,2.19,-2.68,-0.64,3.52
12.390,6.10,-2.73,-0.38,6.70
12.400,8.67,-2.01,-0.56,8.92
12.410,8.54,-0.06,-1.36,8.64
12.420,5.58,1.39,-0.79,5.80
12.430,2.61,1.37,0.01,2.95
12.440,0.69,-0.09,0.03,0.69
12.450,-0.53,-1.45,-0.02,1.55
12.460,-1.39,-2.59,-0.01,2.94
12.470,-1.93,-3.59,-1.15,4.23
12.481,-1.94,-3.60,-2.57,4.83
12.490,-1.66,-2.50,-2.96,4.21
12.501,-1.59,-1.60,-3.12,3.85
12.510,-0.80,-0.82,-3.26,3.45
12.520,0.59,0.28,-2.66,2.74
12.531,1.64,0.83,-1.97,2.69
12.541,1.99,0.61,-1.21,2.40
12.550,1.70,0.15,-0.78,1.87
12.560,0.99,-0.11,-0.49,1.12
12.571,-0.08,-0.44,-0.48,0.66
12.581,-1.01,-0.73,-0.48,1.34
12.591,-1.39,-0.95,-0.54,1.76
12.600,-1.54,-1.21,-0.52,2.02
12.611,-1.44,-1.43,-0.56,2.10
12.621,-1.24,-1.52,-0.46,2.01
12.631,-1.01,-1.62,-0.30,1.93
12.641,-0.92,-1.81,-0.24,2.05
12.651,-0.97,-1.93,-0.40,2.19
12.661,-0.98,-1.89,-0.64,2.23
12.671,-1.11,-1.79,-0.75,2.23
12.681,-1.33,-1.82,-0.74,2.38
12.691,-1.46,-1.77,-0.77,2.42
12.701,-1.30,-1.68,-0.71,2.24
12.711,-0.82,-1.59,-0.48,1.85
12.721,-0.08,-1.61,-0.11,1.61
12.731,0.52,-1.62,0.35,1.74
12.741,0.64,-1.71,0.55,1.91
12.751,0.28,-1.83,0.56,1.94
12.761,-0.12,-1.92,0.37,1.96
12.771,-0.33,-1.90,0.17,1.94
12.781,-0.46,-1.87,0.08,1.93
12.791,-0.75,-1.77,-0.10,1.93
12.801,-1.14,-1.50,-0.49,1.95
12.811,-1.62,-1.09,-0.85,2.13
12.821,-1.85,-0.71,-1.02,2.23
12.831,-1.57,-0.46,-0.94,1.89
12.841,-0.86,-0.31,-0.52,1.05
12.851,-0.06,-0.26,0.09,0.28
12.861,0.47,-0.43,0.66,0.92
12.871,0.70,-0.68,1.00,1.40
12.881,0.95,-1.09,1.26,1.92
12.891,1.32,-1.59,1.55,2.58
12.901,1.45,-1.96,1.61,2.92
12.911,1.14,-1.92,1.66,2.78
12.921,0.72,-1.71,1.71,2.52
12.931,0.54,-1.67,1.66,2.41
12.941,0.47,-1.67,1.61,2.37
12.951,0.48,-1.78,1.62,2.45
12.961,0.64,-1.89,1.77,2.67
12.971,0.85,-2.02,1.85,2.87
12.981,1.13,-2.08,1.94,3.06
12.991,1.03,-2.04,1.83,2.93
13.001,0.77,-2.16,1.48,2.73
13.011,0.76,-2.43,1.00,2.73
13.021,1.04,-2.73,0.49,2.96
13.031,1.61,-2.79,0.10,3.23
13.041,2.34,-2.51,-0.25,3.44
13.051,2.99,-1.94,-0.84,3.66
13.061,3.25,-0.87,-1.50,3.68
13.071,2.84,0.36,-2.33,3.69
13.081,1.92,1.25,-3.27,3.99
13.091,0.65,1.95,-3.86,4.37
13.101,-0.79,2.65,-4.24,5.06
13.111,-2.00,3.09,-4.51,5.82
13.121,-2.57,2.68,-4.52,5.85
13.131,-2.79,2.12,-3.89,5.23
13.141,-1.99,1.31,-2.76,3.65
13.151,-0.60,0.20,-1.61,1.73
13.161,1.05,-0.90,-0.74,1.57
13.171,2.40,-1.51,-0.23,2.84
13.181,2.88,-1.67,0.05,3.33
13.191,2.66,-1.71,0.24,3.17
13.201,1.96,-1.75,0.43,2.66
13.211,1.06,-1.66,0.33,2.00
13.221,0.23,-1.30,0.12,1.32
13.231,-0.43,-0.96,0.02,1.05
13.241,-0.88,-0.80,-0.18,1.20
13.251,-1.10,-0.70,-0.29,1.34
13.261,-1.05,-0.60,-0.29,1.25
13.271,-0.80,-0.57,-0.28,1.02
13.281,-0.60,-0.69,-0.30,0.96
13.291,-0.49,-0.90,-0.33,1.08
13.301,-0.53,-1.09,-0.29,1.24
13.311,-0.70,-1.23,-0.22,1.43
13.321,-0.94,-1.31,-0.24,1.63
13.331,-1.10,-1.29,-0.35,1.73
13.341,-1.15,-1.15,-0.50,1.70
13.351,-1.18,-1.03,-0.49,1.64
13.361,-1.06,-1.00,-0.40,1.51
13.371,-0.91,-1.05,-0.37,1.44
13.381,-0.64,-1.15,-0.36,1.36
13.391,-0.35,-1.18,-0.35,1.28
13.401,-0.13,-1.04,-0.33,1.09
13.411,0.06,-0.87,-0.37,0.94
13.421,0.09,-0.54,-0.50,0.74
13.431,0.05,-0.21,-0.73,0.76
13.441,0.06,0.26,-0.87,0.91
13.451,-0.20,0.52,-1.03,1.17
13.461,-0.46,0.53,-1.10,1.31
13.471,-0.62,0.52,-1.12,1.38
13.481,-0.82,0.21,-1.00,1.31
13.491,-1.03,-0.31,-0.61,1.23
13.501,-1.20,-0.68,-0.97,1.68
13.511,-1.13,-0.59,-0.79,1.50
13.521,-0.92,-0.20,-0.30,0.99
13.531,-0.58,0.30,-0.13,0.67
13.541,-0.22,0.60,0.20,0.67
13.551,0.13,0.59,0.43,0.74
13.561,0.35,0.48,0.51,0.79
13.571,0.24,0.26,0.73,0.81
13.581,-0.38,-0.59,0.97,1.20
13.591,-0.86,-1.45,0.25,1.71
13.601,-0.94,-1.82,0.02,2.05
13.611,-0.82,-1.85,0.32,2.05
13.622,-0.50,-1.67,0.56,1.83
13.631,-0.23,-1.36,0.86,1.62
13.642,-0.13,-1.16,1.16,1.65
13.651,-0.12,-1.15,1.41,1.82
13.661,-0.11,-1.44,1.77,2.28
13.671,-0.21,-1.83,1.95,2.69
13.681,-0.54,-2.21,2.25,3.20
13.691,-0.76,-2.55,2.36,3.56
13.701,-0.79,-2.80,2.32,3.72
13.711,-0.38,-2.66,2.28,3.52
13.722,1.07,-1.98,1.42,2.66
13.731,3.40,-1.08,-0.02,3.56
13.742,5.70,-0.68,-0.91,5.81
13.751,6.96,-0.13,-2.41,7.36
13.762,5.82,1.32,-2.62,6.52
13.772,2.69,2.24,-2.29,4.18
13.782,0.65,2.14,-1.63,2.77
13.792,-0.24,1.36,-0.84,1.62
13.802,-0.85,0.23,-0.64,1.09
13.811,-1.15,-0.78,-0.83,1.61
13.822,-1.78,-1.77,-0.80,2.64
13.832,-2.33,-2.46,-1.04,3.54
13.842,-2.27,-2.74,-1.70,3.94
13.852,-1.56,-2.59,-2.35,3.82
13.862,-0.29,-2.13,-2.98,3.68
13.872,1.57,-1.24,-3.95,4.43
13.882,3.38,0.21,-3.48,4.86
13.892,3.81,1.16,-2.96,4.96
13.902,3.06,2.12,-2.29,4.37
13.912,1.71,3.14,-1.84,4.02
13.922,0.25,3.68,-1.86,4.13
13.932,-0.91,3.59,-1.85,4.14
13.942,-1.27,2.99,-1.77,3.69
13.952,-1.07,2.04,-1.64,2.83
13.962,-0.65,1.24,-1.54,2.08
13.972,-0.42,0.54,-1.53,1.68
13.982,-0.40,-0.00,-1.50,1.55
13.992,-0.65,-0.36,-1.32,1.51
14.002,-0.99,-0.74,-1.20,1.72
14.012,-1.30,-1.11,-0.93,1.94
14.022,-1.52,-1.53,-0.77,2.29
14.032,-1.43,-1.74,-0.71,2.36
14.042,-1.04,-1.78,-0.56,2.13
14.052,-0.71,-1.66,-0.32,1.83
14.062,-0.49,-1.32,-0.19,1.42
14.072,-0.23,-0.94,-0.21,0.99
14.082,-0.21,-0.57,-0.29,0.68
14.092,-0.50,-0.22,-0.46,0.71
14.102,-0.76,0.03,-0.65,1.00
14.112,-0.95,0.09,-0.71,1.19
14.122,-1.06,0.04,-0.72,1.28
14.132,-1.09,-0.01,-0.65,1.26
14.142,-1.08,-0.13,-0.54,1.21
14.152,-0.96,-0.23,-0.59,1.15
14.162,-0.96,-0.30,-0.48,1.11
14.172,-1.20,-0.44,-0.37,1.33
14.182,-1.36,-0.43,-0.24,1.45
14.192,-1.45,-0.36,0.02,1.49
14.202,-1.51,-0.46,0.14,1.58
14.212,-1.51,-0.65,0.21,1.65
14.222,-1.58,-0.80,0.05,1.77
14.232,-1.82,-0.82,0.10,2.00
14.242,-2.39,-0.76,0.19,2.52
14.252,-3.46,-0.57,0.50,3.54
14.262,-4.74,-0.44,0.61,4.80
14.272,-5.70,-0.48,0.05,5.72
14.282,-5.73,-0.45,-0.14,5.75
14.292,-4.80,-0.48,0.05,4.82
14.302,-3.14,-0.56,0.35,3.21
14.312,-1.31,-0.50,0.49,1.49
14.322,-0.42,-0.80,0.60,1.08
14.332,-0.82,-1.37,0.64,1.72
14.342,-1.12,-1.45,0.43,1.88
14.352,-1.04,-1.12,0.09,1.53
14.362,-0.79,-0.82,0.43,1.22
14.372,-0.22,-0.71,1.11,1.34
14.382,0.65,-0.65,1.74,1.96
14.392,1.37,-0.78,1.98,2.53
14.402,1.47,-1.08,1.92,2.65
14.412,1.30,-1.36,1.45,2.38
14.422,1.05,-1.26,1.22,2.04
14.432,0.58,-1.09,1.14,1.68
14.442,0.51,-1.22,0.51,1.42
14.452,0.91,-1.26,-0.35,1.59
14.462,1.40,-0.67,-1.10,1.90
14.472,1.73,0.03,-1.60,2.36
14.482,2.18,0.75,-1.71,2.87
14.492,2.32,1.22,-1.75,3.15
14.502,2.06,1.33,-1.93,3.11
14.512,1.43,1.37,-2.00,2.81
14.522,1.10,1.44,-1.95,2.66
14.532,1.20,1.53,-1.86,2.70
14.542,1.65,1.58,-1.69,2.85
14.552,2.21,1.53,-1.54,3.10
14.562,2.59,1.27,-1.56,3.28
14.572,2.67,0.99,-2.09,3.53
14.582,2.92,1.10,-1.84,3.63
14.592,3.28,1.56,-1.27,3.85
14.602,3.77,2.34,-0.77,4.50
14.612,4.75,3.15,0.09,5.70
14.622,5.56,3.58,0.33,6.63
14.632,5.48,3.41,-0.14,6.45
14.642,4.15,2.44,-0.53,4.84
14.652,2.26,1.03,-0.78,2.60
14.662,0.76,-0.32,-0.83,1.16
14.672,-0.34,-1.27,-0.47,1.39
14.682,-0.94,-1.78,-0.18,2.02
14.692,-1.16,-2.01,0.03,2.32
14.702,-1.15,-2.02,0.18,2.33
14.712,-1.20,-1.84,0.36,2.23
14.722,-1.22,-1.46,0.57,1.99
14.732,-1.15,-0.93,0.60,1.60
14.742,-1.17,-0.42,0.39,1.30
14.752,-1.39,-0.12,0.09,1.40
14.762,-1.70,0.06,-0.13,1.71
14.772,-1.95,0.20,-0.17,1.97
14.782,-1.96,0.41,-0.24,2.02
14.792,-1.87,0.69,-0.25,2.01
14.802,-1.90,0.92,-0.34,2.14
14.812,-2.05,1.05,-0.28,2.32
14.823,-2.22,1.14,-0.19,2.50
14.832,-2.25,0.91,-0.27,2.45
14.843,-2.16,0.58,-0.30,2.26
14.853,-2.13,0.19,-0.34,2.17
14.863,-2.16,-0.29,-0.41,2.22
14.872,-2.10,-0.63,-0.26,2.21
14.882,-1.74,-0.65,0.22,1.87
14.893,-1.39,-0.57,0.50,1.58
14.903,-1.37,-0.35,0.41,1.47
14.912,-1.56,0.13,0.24,1.59
14.923,-2.06,0.50,-0.06,2.12
14.933,-2.97,0.26,-0.39,3.01
14.943,-3.65,-0.02,-0.41,3.67
14.953,-4.28,-0.31,-0.50,4.32
14.963,-4.89,-0.76,-1.02,5.05
14.973,-5.02,-1.13,-1.41,5.33
14.983,-4.75,-1.42,-1.10,5.08
14.993,-4.00,-1.42,-0.52,4.28
15.003,-2.53,-0.89,-0.13,2.68
15.012,-0.83,0.18,-0.04,0.85
15.023,0.58,1.39,-0.13,1.51
15.033,1.36,2.07,-0.05,2.48
15.043,1.33,2.45,-0.06,2.79
15.053,0.52,2.36,-0.00,2.42
15.063,-0.05,2.06,0.36,2.09
15.073,-0.49,1.79,0.94,2.08
15.083,-1.12,1.32,1.68,2.42
15.093,-1.39,0.51,2.14,2.60
15.103,-1.43,-0.20,2.25,2.67
15.113,-1.12,-0.43,2.47,2.75
15.123,-0.56,-0.32,2.47,2.55
15.133,-0.04,-0.18,2.28,2.29
15.143,1.16,0.28,1.63,2.02
15.153,2.63,0.90,0.76,2.88
15.163,3.88,1.11,-0.36,4.05
15.173,5.32,1.84,-1.37,5.79
15.183,6.01,2.26,-1.67,6.63
15.193,6.11,1.51,-2.13,6.65
15.203,5.74,0.60,-1.77,6.04
15.213,4.02,-0.25,-1.19,4.20
15.223,2.54,-1.44,-0.63,2.99
15.233,1.99,-2.38,-0.26,3.11
15.243,2.27,-2.29,0.44,3.25
15.253,3.50,-1.67,1.21,4.06
15.263,5.01,-1.60,2.08,5.65
15.273,6.30,-2.52,2.35,7.18
15.283,6.47,-3.40,2.06,7.60
15.293,4.81,-3.32,1.22,5.97
15.303,2.28,-2.15,0.39,3.16
15.313,0.07,-0.69,-0.50,0.86
15.323,-1.57,0.87,-1.07,2.09
15.333,-2.75,2.09,-1.42,3.73
15.343,-3.00,2.42,-1.76,4.24
15.353,-2.27,2.29,-1.85,3.71
15.363,-1.17,1.96,-1.71,2.85
15.373,-0.09,1.39,-1.61,2.13
15.383,0.71,0.75,-1.54,1.85
15.393,0.85,0.10,-1.50,1.73
15.403,0.43,-0.22,-1.44,1.52
15.413,-0.38,-0.25,-1.30,1.38
15.423,-1.15,-0.33,-1.08,1.62
15.433,-1.55,-0.58,-0.81,1.84
15.443,-1.72,-0.91,-0.51,2.01
15.453,-1.63,-1.28,-0.26,2.08
15.463,-1.35,-1.62,0.01,2.11
15.473,-1.08,-1.89,0.20,2.19
15.483,-0.86,-1.97,0.33,2.18
15.493,-0.72,-1.87,0.43,2.05
15.503,-0.73,-1.78,0.46,1.98
15.513,-0.71,-1.72,0.43,1.91
15.523,-0.72,-1.61,0.43,1.82
15.533,-0.89,-1.42,0.30,1.70
15.543,-1.20,-1.21,0.14,1.70
15.553,-1.65,-1.03,-0.01,1.94
15.563,-1.87,-0.82,0.09,2.05
15.573,-1.61,-0.69,0.33,1.78
15.583,-1.11,-0.62,0.26,1.30
15.593,-0.99,-0.49,-0.17,1.12
15.603,-1.62,-0.25,-0.80,1.82
15.613,-2.80,0.03,-0.98,2.97
15.623,-4.15,0.17,-0.71,4.21
15.633,-5.12,0.03,-0.66,5.16
15.643,-5.42,-0.50,-0.57,5.47
15.653,-4.83,-1.07,-0.36,4.96
15.663,-3.60,-1.42,0.06,3.87
15.673,-2.15,-1.67,0.30,2.74
15.683,-1.05,-1.80,0.37,2.12
15.693,-0.41,-1.77,0.35,1.85
15.703,-0.26,-1.59,0.68,1.75
15.713,-0.45,-1.48,0.86,1.77
15.723,-0.80,-1.29,0.47,1.59
15.733,-1.15,-1.04,-0.34,1.59
15.743,-1.40,-0.72,-0.71,1.73
15.753,-1.65,-0.34,-0.45,1.74
15.763,-1.52,-0.20,-0.67,1.67
15.773,-0.97,-0.52,-1.16,1.60
15.783,-0.42,-1.06,-1.34,1.76
15.793,0.45,-1.02,-1.04,1.53
15.803,1.33,-0.70,-0.70,1.66
15.813,2.11,-0.00,-0.77,2.24
15.823,2.53,1.10,-0.51,2.81
15.833,2.67,1.81,0.23,3.24
15.843,2.69,1.39,0.21,3.04
15.853,3.28,0.62,0.05,3.34
15.863,3.83,0.09,-0.18,3.83
15.873,3.92,-0.14,-0.63,3.98
15.883,3.43,0.03,-0.86,3.53
15.893,3.09,0.82,-0.61,3.25
15.903,3.63,2.15,-0.31,4.23
15.913,4.82,3.14,0.25,5.75
15.923,6.17,3.56,0.38,7.13
15.933,7.13,3.45,0.15,7.92
15.943,6.71,2.85,-0.16,7.29
15.953,5.14,2.29,-0.05,5.62
15.963,3.34,1.82,-0.21,3.81
15.973,1.86,1.27,-0.40,2.28
15.983,0.55,0.70,-0.28,0.93
15.993,-0.57,0.18,-0.05,0.60
16.003,-1.27,-0.31,0.10,1.31
16.013,-1.54,-0.63,0.30,1.69
16.023,-1.39,-0.70,0.51,1.63
16.033,-1.14,-0.57,0.56,1.39
16.043,-0.92,-0.33,0.53,1.11
16.053,-0.86,0.01,0.45,0.98
16.063,-0.90,0.32,0.28,0.99
16.073,-0.97,0.44,0.23,1.09
16.083,-1.09,0.57,0.09,1.23
16.093,-1.27,0.66,-0.02,1.43
16.104,-1.43,0.72,-0.07,1.60
16.113,-1.52,0.73,-0.22,1.70
16.124,-1.53,0.69,-0.49,1.75
16.134,-1.44,0.60,-0.62,1.68
16.144,-1.35,0.54,-0.60,1.57
16.154,-1.29,0.45,-0.53,1.47
16.164,-1.29,0.34,-0.47,1.42
16.174,-1.34,0.24,-0.43,1.42
16.184,-1.49,0.16,-0.31,1.53
16.194,-1.62,0.18,-0.15,1.64
16.204,-1.77,0.24,-0.14,1.79
16.214,-2.01,0.34,-0.21,2.04
16.224,-2.30,0.53,-0.07,2.36
16.233,-2.88,0.49,-0.46,2.96
16.244,-3.44,0.16,-0.96,3.57
16.254,-3.37,0.24,-0.50,3.42
16.264,-3.13,0.55,-0.30,3.19
16.274,-2.89,0.89,-0.05,3.03
16.284,-2.47,0.83,0.15,2.61
16.294,-1.81,0.68,0.38,1.97
16.304,-1.20,0.57,0.19,1.35
16.314,-0.78,0.29,-0.27,0.88
16.324,-1.01,-0.15,-0.50,1.14
16.334,-1.19,-0.34,-0.35,1.29
16.344,-1.21,-0.21,-0.35,1.27
16.354,-1.56,0.02,-0.54,1.65
16.364,-2.27,0.12,-0.55,2.34
16.374,-2.84,0.11,-0.42,2.87
16.384,-3.12,0.13,0.02,3.12
16.394,-3.09,0.11,0.52,3.14
16.404,-2.66,0.14,1.12,2.88
16.414,-2.06,0.28,1.85,2.78
16.424,-1.15,0.47,2.32,2.63
16.434,-0.17,0.89,2.50,2.66
16.444,0.46,1.09,2.40,2.68
16.454,0.99,1.13,2.21,2.67
16.464,1.39,1.17,2.17,2.84
16.474,1.25,1.01,1.86,2.46
16.484,1.13,0.95,1.30,1.97
16.494,1.31,1.17,0.55,1.84
16.504,1.96,1.71,0.28,2.61
16.514,2.66,2.02,0.63,3.40
16.524,3.23,1.08,0.58,3.45
16.534,4.29,-0.16,-0.17,4.29
16.544,5.01,-0.93,-1.48,5.31
16.554,5.13,-1.10,-1.83,5.56
16.564,4.54,-1.25,-1.71,5.01
16.574,3.56,-1.50,-1.02,4.00
16.584,3.73,-1.98,0.13,4.23
16.594,5.23,-2.52,1.09,5.91
16.604,6.70,-2.91,1.84,7.54
16.614,6.52,-2.41,1.90,7.21
16.624,3.58,-1.53,1.48,4.17
16.634,0.78,-0.52,1.03,1.39
16.644,-0.88,0.12,0.73,1.15
16.654,-1.53,0.36,0.48,1.64
16.664,-1.28,0.62,0.28,1.45
16.674,-0.61,0.75,0.03,0.97
16.684,0.17,0.51,-0.31,0.62
16.694,0.54,0.38,-0.63,0.91
16.704,0.32,0.50,-1.10,1.25
16.714,0.03,0.74,-1.52,1.69
16.724,-0.31,0.97,-1.78,2.06
16.734,-0.60,1.02,-1.80,2.15
16.744,-0.77,0.86,-1.62,1.99
16.754,-0.73,0.64,-1.35,1.66
16.764,-0.72,0.36,-1.08,1.35
16.774,-0.90,0.16,-0.91,1.29
16.784,-1.00,-0.10,-0.65,1.20
16.794,-0.84,-0.47,-0.38,1.04
16.804,-0.37,-0.90,-0.17,0.98
16.814,0.11,-1.26,-0.05,1.27
16.824,0.15,-1.33,0.01,1.34
16.834,-0.27,-1.09,-0.03,1.12
16.844,-0.96,-0.84,-0.07,1.28
16.854,-1.44,-0.73,-0.14,1.62
16.864,-1.60,-0.79,-0.26,1.80
16.874,-1.57,-0.91,-0.51,1.88
16.884,-1.60,-0.92,-0.72,1.98
16.894,-1.84,-0.85,-0.80,2.18
16.904,-2.24,-0.65,-0.74,2.45
16.914,-2.41,-0.39,-0.34,2.46
16.924,-2.20,-0.37,0.25,2.24
16.934,-1.64,-0.67,0.46,1.83
16.944,-0.97,-1.05,0.62,1.56
16.954,-0.57,-1.42,0.65,1.66
16.964,-0.53,-1.46,0.64,1.68
16.974,-0.85,-1.42,0.12,1.66
16.984,-1.66,-1.39,-0.37,2.19
16.994,-2.78,-1.32,-1.00,3.24
17.004,-3.67,-1.03,-1.88,4.25
17.014,-4.29,-0.45,-2.35,4.92
17.024,-4.86,0.39,-2.08,5.30
17.034,-5.31,1.01,-1.49,5.61
17.044,-4.80,1.16,-0.67,4.98
17.054,-3.15,0.61,-0.02,3.21
17.064,-1.39,-0.46,0.08,1.47
17.074,-0.30,-1.44,-0.01,1.48
17.084,0.08,-1.94,0.17,1.95
17.094,0.16,-1.85,0.12,1.86
17.104,0.05,-1.41,0.18,1.42
17.114,-0.32,-0.97,0.45,1.11
17.124,-0.44,-0.76,0.36,0.95
17.134,-0.19,-0.72,0.05,0.75
17.144,0.11,-0.77,-0.30,0.83
17.154,0.75,-0.56,-0.55,1.09
17.164,1.76,0.08,-0.24,1.78
17.174,2.74,0.46,-0.28,2.79
17.185,3.33,0.73,-0.53,3.45
17.194,3.19,1.01,-0.51,3.38
17.205,2.59,0.75,-0.43,2.73
17.214,2.29,-0.15,-0.56,2.37
17.224,2.30,-0.47,-0.41,2.38
17.234,1.89,-0.64,-0.31,2.02
17.244,1.76,-0.54,-0.17,1.85
17.254,1.87,0.29,0.03,1.89
17.264,2.48,1.33,0.38,2.84
17.274,3.64,2.17,0.75,4.30
17.285,4.84,2.75,1.09,5.68
17.294,5.97,2.96,1.21,6.78
17.305,6.73,2.72,0.98,7.32
17.314,6.34,2.41,0.90,6.84
17.325,4.91,2.15,0.63,5.40
17.335,3.28,1.76,0.37,3.73
17.345,1.87,1.04,0.34,2.17
17.355,0.69,0.15,0.22,0.74
17.365,-0.27,-0.49,0.11,0.57
17.375,-0.94,-0.77,-0.02,1.21
17.385,-1.49,-0.77,-0.01,1.68
17.395,-1.85,-0.61,0.09,1.95
17.405,-1.91,-0.42,0.14,1.96
17.415,-1.80,-0.20,0.14,1.82
17.425,-1.75,0.05,0.15,1.76
17.435,-1.83,0.31,0.10,1.86
17.445,-1.97,0.56,0.01,2.05
17.455,-2.05,0.74,-0.19,2.18
17.465,-2.10,0.88,-0.41,2.31
17.475,-2.12,1.00,-0.58,2.42
17.485,-2.02,1.14,-0.69,2.42
17.495,-1.73,1.25,-0.70,2.25
17.505,-1.38,1.20,-0.72,1.96
17.515,-1.04,1.00,-0.64,1.58
17.525,-0.73,0.79,-0.43,1.16
17.535,-0.47,0.61,-0.09,0.77
17.545,-0.26,0.53,0.28,0.66
17.555,-0.15,0.48,0.54,0.74
17.565,-0.23,0.32,0.56,0.69
17.575,-0.52,0.21,0.49,0.75
17.585,-1.23,0.00,0.59,1.36
17.595,-1.92,-0.37,0.68,2.07
17.605,-2.26,-0.49,0.69,2.41
17.615,-2.37,-0.22,0.87,2.53
17.625,-2.47,-0.05,0.82,2.60
17.635,-2.63,-0.34,0.16,2.66
17.645,-2.64,-0.62,0.19,2.72
17.655,-2.73,-0.59,0.48,2.84
17.665,-2.60,-0.09,0.35,2.62
17.675,-2.40,0.34,0.25,2.44
17.685,-2.34,0.41,0.30,2.39
17.695,-1.85,0.36,0.28,1.91
17.705,-1.42,0.02,0.03,1.42
17.715,-1.20,-0.27,-0.45,1.31
17.725,-1.25,-0.30,-0.77,1.50
17.735,-1.49,0.00,-0.77,1.68
17.745,-1.84,0.14,-0.54,1.92
17.755,-1.99,0.19,-0.15,2.01
17.765,-1.87,0.26,0.35,1.92
17.775,-1.67,0.22,0.72,1.83
17.785,-1.46,0.04,1.27,1.93
17.795,-1.34,-0.19,1.69,2.17
17.805,-1.33,-0.39,1.95,2.39
17.815,-1.54,-0.48,2.16,2.69
17.825,-1.76,-0.42,2.24,2.88
17.835,-1.72,-0.52,2.25,2.88
17.845,-1.68,-0.79,2.26,2.93
17.855,-1.44,-0.81,2.30,2.83
17.865,-0.98,-0.49,2.00,2.28
17.875,-0.06,0.40,1.15,1.22
17.885,1.47,1.63,-0.22,2.21
17.895,3.07,2.20,-0.60,3.83
17.905,4.11,1.67,-0.36,4.45
17.915,5.00,1.07,-1.89,5.46
17.925,5.13,0.64,-2.87,5.91
17.935,4.95,0.41,-3.14,5.88
17.945,4.34,0.89,-3.19,5.46
17.955,3.16,1.19,-1.89,3.87
17.965,2.14,1.13,-1.57,2.88
17.975,1.78,1.14,-0.94,2.31
17.985,2.18,0.52,0.04,2.24
17.995,3.71,-0.54,1.03,3.89
18.005,5.39,-1.65,1.72,5.89
18.015,5.89,-2.00,2.04,6.55
18.025,4.72,-1.86,1.72,5.35
18.035,2.76,-1.73,1.43,3.55
18.045,0.86,-1.26,0.91,1.77
18.055,-0.59,-0.67,0.36,0.96
18.065,-1.39,-0.19,0.29,1.43
18.075,-1.35,0.07,0.11,1.36
18.085,-0.51,0.00,-0.08,0.52
18.095,0.72,-0.08,-0.18,0.75
18.105,1.77,-0.12,-0.19,1.78
18.115,2.20,-0.06,-0.43,2.24
18.125,1.77,0.12,-0.88,1.99
18.135,0.80,0.43,-1.32,1.60
18.145,-0.19,0.68,-1.67,1.81
18.155,-0.76,0.95,-1.87,2.23
18.165,-1.10,1.15,-1.85,2.44
18.175,-1.27,1.11,-1.69,2.39
18.185,-1.28,0.89,-1.48,2.15
18.195,-1.26,0.65,-1.22,1.87
18.205,-0.94,0.19,-0.97,1.37
18.215,-0.35,-0.31,-0.57,0.74
18.225,0.11,-0.62,-0.23,0.67
18.235,0.26,-0.79,-0.09,0.83
18.245,0.05,-0.87,-0.07,0.88
18.255,-0.49,-0.78,-0.14,0.93
18.265,-0.92,-0.68,-0.08,1.15
18.275,-1.18,-0.71,-0.07,1.38
18.285,-1.32,-0.79,-0.05,1.54
18.295,-1.51,-0.91,0.04,1.76
18.305,-2.07,-1.10,-0.01,2.35
18.315,-2.82,-1.13,-0.14,3.05
18.325,-3.48,-1.07,-0.12,3.65
18.335,-3.58,-0.96,-0.21,3.71
18.345,-2.85,-0.82,0.00,2.96
18.355,-1.33,-0.96,0.02,1.64
18.365,0.30,-1.35,-0.09,1.39
18.375,0.92,-1.58,-0.16,1.84
18.386,0.00,-1.38,-0.33,1.42
18.395,-1.83,-0.90,-0.54,2.10
18.405,-3.38,-0.49,-0.94,3.55
18.415,-4.17,-0.27,-0.91,4.27
18.426,-4.35,-0.42,-0.34,4.38
18.435,-3.78,-0.86,0.13,3.88
18.445,-2.82,-1.36,0.36,3.15
18.455,-1.75,-1.59,0.55,2.42
18.465,-0.98,-1.39,0.59,1.80
18.475,-0.87,-1.13,0.38,1.48
18.485,-0.93,-0.97,0.11,1.35
18.495,-1.14,-0.81,-0.04,1.40
18.506,-1.30,-0.69,-0.31,1.50
18.515,-1.17,-0.61,-0.52,1.42
18.526,-0.81,-0.55,-0.95,1.36
18.535,-0.57,-0.31,-1.29,1.44
18.546,-0.49,-0.09,-1.05,1.16
18.555,-0.32,-0.20,-0.75,0.84
18.566,0.19,-0.38,-0.71,0.82
18.575,0.67,-0.53,-0.91,1.24
18.586,1.21,-0.18,-0.68,1.40
18.596,1.71,0.47,-0.37,1.81
18.606,2.15,1.00,0.06,2.37
18.615,2.58,0.99,0.58,2.83
18.626,3.05,0.37,0.56,3.12
18.636,3.47,-0.41,0.11,3.49
18.646,3.66,-0.34,-0.03,3.67
18.656,3.49,0.44,0.08,3.52
18.666,3.43,1.29,-0.02,3.67
18.676,4.07,2.16,-0.07,4.61
18.686,4.97,3.21,0.85,5.98
18.696,5.88,4.24,1.93,7.50
18.706,6.44,4.86,1.98,8.31
18.716,5.80,4.24,1.21,7.29
18.726,4.17,2.63,0.67,4.97
18.736,2.27,0.96,0.44,2.50
18.746,0.62,-0.26,0.22,0.71
18.756,-0.67,-1.01,0.11,1.22
18.766,-1.51,-1.34,0.38,2.05
18.776,-1.96,-1.42,0.56,2.49
18.786,-2.08,-1.25,0.54,2.49
18.796,-1.91,-0.82,0.55,2.15
18.806,-1.53,-0.26,0.43,1.61
18.816,-1.19,0.28,0.23,1.25
18.826,-1.03,0.69,0.12,1.25
18.836,-0.99,1.05,0.16,1.45
18.846,-1.06,1.38,0.16,1.74
18.856,-1.17,1.54,0.11,1.94
18.866,-1.21,1.52,0.07,1.95
18.876,-1.22,1.42,-0.06,1.87
18.886,-1.25,1.32,-0.15,1.83
18.896,-1.28,1.23,-0.23,1.79
18.906,-1.27,1.03,-0.21,1.64
18.916,-1.26,0.70,-0.08,1.45
18.926,-1.29,0.34,-0.03,1.34
18.936,-1.46,0.15,0.05,1.47
18.946,-1.83,0.12,0.21,1.85
18.956,-2.42,0.09,0.31,2.44
18.966,-3.01,-0.01,0.29,3.03
18.976,-3.53,-0.13,0.14,3.53
18.986,-3.88,-0.21,0.08,3.88
18.996,-3.92,-0.22,0.08,3.93
19.006,-3.53,0.11,0.03,3.53
19.016,-3.10,0.60,0.34,3.18
19.026,-2.57,1.01,0.71,2.85
19.036,-1.80,1.18,0.95,2.35
19.046,-0.88,1.19,1.00,1.78
19.056,-0.31,0.98,0.86,1.34
19.066,-0.32,0.61,0.43,0.82
19.076,-0.76,0.09,-0.23,0.80
19.086,-1.53,-0.58,-0.93,1.88
19.096,-2.77,-1.13,-1.52,3.36
19.106,-3.92,-1.23,-1.29,4.30
19.116,-4.31,-0.85,-0.94,4.50
19.126,-4.10,-0.22,-0.52,4.13
19.136,-3.73,0.14,0.05,3.73
19.146,-3.20,0.09,0.61,3.26
19.156,-2.48,-0.01,1.28,2.79
19.166,-2.29,0.02,1.91,2.98
19.176,-2.59,0.10,2.36,3.50
19.186,-3.01,0.13,2.64,4.01
19.196,-3.17,0.02,2.85,4.27
19.206,-2.89,-0.10,2.88,4.08
19.216,-1.62,0.01,2.14,2.68
19.226,1.18,0.94,0.80,1.71
19.236,4.55,2.30,-0.21,5.10
19.246,7.32,2.30,0.39,7.68
19.256,9.29,1.38,0.51,9.41
19.266,8.77,0.11,-1.91,8.98
19.276,6.91,-0.18,-2.09,7.22
19.286,4.99,0.88,-3.13,5.95
19.296,2.77,1.97,-1.87,3.88
19.306,0.69,1.54,-1.11,2.01
19.316,0.47,1.13,-0.86,1.49
19.326,2.91,0.68,0.20,2.99
19.336,7.31,-0.47,1.32,7.45
19.346,10.98,-1.70,1.63,11.23
19.356,10.78,-2.03,1.72,11.11
19.366,5.22,-1.67,1.97,5.83
19.376,0.74,-0.86,1.90,2.21
19.386,-1.27,-0.47,1.28,1.86
19.396,-2.07,-0.30,0.87,2.27
19.406,-2.07,-0.38,1.11,2.38
19.416,-1.40,-0.87,1.11,1.99
19.426,-0.17,-1.43,0.56,1.55
19.436,1.04,-1.52,0.10,1.85
19.446,1.82,-1.41,-0.27,2.32
19.456,2.05,-1.04,-1.03,2.52
19.466,1.31,-0.29,-1.55,2.04
19.476,0.23,0.47,-1.95,2.02
19.486,-0.46,1.08,-2.14,2.45
19.496,-0.97,1.28,-2.08,2.63
19.506,-1.33,1.31,-1.98,2.72
19.516,-1.52,1.48,-1.86,2.82
19.526,-1.77,1.51,-1.76,2.92
19.536,-1.75,1.37,-1.63,2.75
19.546,-1.35,1.03,-1.28,2.13
19.556,-0.91,0.53,-0.84,1.35
19.567,-0.51,0.01,-0.44,0.68
19.576,-0.32,-0.41,-0.16,0.54
19.587,-0.44,-0.68,-0.09,0.81
19.596,-0.79,-0.80,-0.14,1.13
19.607,-1.26,-0.80,-0.18,1.50
19.616,-1.46,-0.85,-0.20,1.70
19.627,-1.34,-1.04,-0.12,1.70
19.637,-1.21,-1.17,0.05,1.69
19.647,-1.54,-1.05,0.11,1.86
19.657,-2.01,-0.83,0.22,2.18
19.667,-2.06,-0.56,0.42,2.17
19.677,-1.68,-0.49,0.55,1.84
19.687,-1.23,-0.57,0.66,1.51
19.696,-1.13,-0.89,0.81,1.65
19.707,-1.43,-1.39,1.09,2.28
19.717,-2.02,-1.95,0.88,2.95
19.727,-2.17,-2.25,-0.11,3.13
19.737,-2.06,-1.97,-0.83,2.97
19.747,-2.60,-1.11,-0.77,2.93
19.757,-3.88,-0.28,-0.93,4.00
19.767,-5.25,0.23,-0.62,5.29
19.777,-5.89,0.24,-0.34,5.90
19.787,-5.32,-0.17,-0.51,5.35
19.796,-3.68,-0.72,-0.63,3.80
19.807,-2.09,-1.15,-0.48,2.44
19.817,-1.43,-1.20,-0.27,1.89
19.827,-1.28,-1.09,-0.00,1.68
19.837,-1.74,-0.85,0.23,1.95
19.847,-2.56,-0.54,0.16,2.62
19.857,-3.29,-0.36,0.17,3.31
19.867,-3.56,-0.27,-0.05,3.57
19.877,-3.42,-0.10,-0.64,3.48
19.887,-3.10,0.11,-0.84,3.21
19.897,-1.90,0.45,-0.64,2.06
19.907,0.18,0.81,-0.04,0.83
19.917,2.68,0.99,0.64,2.93
19.927,5.18,0.93,0.26,5.27
19.937,6.81,0.98,0.22,6.88
19.947,6.96,1.20,0.33,7.07
19.957,6.22,1.39,0.22,6.37
19.967,5.84,1.56,0.19,6.05
19.977,6.11,1.40,0.51,6.29
19.987,6.53,1.20,0.70,6.67
19.997,6.14,0.82,0.37,6.21
20.007,5.47,0.72,0.87,5.59
20.017,5.14,0.84,1.46,5.41
20.027,5.14,1.27,1.56,5.52
20.037,5.67,1.88,1.49,6.16
20.047,5.82,2.12,1.14,6.30
20.057,5.09,1.86,0.85,5.48
20.067,3.66,1.55,0.72,4.04
20.077,2.06,1.21,0.45,2.43
20.087,0.86,0.81,0.20,1.20
20.097,-0.06,0.21,0.12,0.25
20.107,-0.65,-0.37,0.13,0.76
20.117,-1.02,-0.70,0.12,1.24
20.127,-1.32,-0.75,0.17,1.52
20.137,-1.60,-0.59,0.24,1.72
20.147,-1.83,-0.31,0.30,1.88
20.157,-2.05,-0.01,0.32,2.08
20.167,-2.42,0.32,0.20,2.45
20.177,-2.91,0.54,0.09,2.96
20.187,-3.35,0.47,-0.12,3.38
20.197,-3.59,0.28,-0.24,3.61
20.207,-3.79,0.16,-0.34,3.81
20.217,-3.86,0.13,-0.45,3.89
20.227,-3.92,0.11,-0.62,3.97
20.237,-3.83,0.13,-0.75,3.91
20.247,-3.64,0.28,-0.75,3.73
20.257,-3.48,0.48,-0.63,3.57
20.267,-3.47,0.67,-0.51,3.57
20.277,-3.70,0.61,-0.47,3.78
20.287,-4.07,0.12,-0.58,4.11
20.297,-4.17,-0.43,-0.32,4.20
20.307,-3.87,-0.69,0.35,3.95
20.317,-3.27,-0.77,0.96,3.49
20.327,-2.45,-0.73,1.47,2.95
20.337,-1.42,-0.47,1.89,2.41
20.347,-0.65,-0.25,2.36,2.46
20.357,-0.11,-0.19,2.43,2.44
20.367,-0.06,-0.08,1.73,1.73
20.377,-0.91,0.10,1.06,1.41
20.387,-2.37,-0.00,0.27,2.38
20.397,-3.49,-0.44,-0.24,3.52
20.407,-4.10,-0.90,-0.36,4.21
20.417,-4.22,-0.91,-0.21,4.32
20.427,-3.63,-0.52,0.03,3.67
20.437,-2.33,-0.24,-0.02,2.34
20.447,-0.94,0.13,0.25,0.98
20.457,0.06,0.54,0.46,0.71
20.467,0.38,1.11,0.57,1.30
20.477,-0.23,1.64,0.92,1.89
20.487,-1.15,1.97,1.73,2.86
20.497,-1.77,2.20,2.50,3.77
20.507,-1.93,2.39,3.22,4.45
20.517,-1.83,2.21,4.02,4.94
20.527,-1.54,1.32,4.62,5.05
20.537,-0.18,0.65,3.53,3.59
20.547,2.45,1.12,1.24,2.97
20.557,4.78,2.38,-0.10,5.34
20.567,6.61,2.70,-0.46,7.15
20.577,6.90,0.49,-0.38,6.93
20.587,6.66,-0.82,-0.97,6.78
20.597,6.38,-0.83,-1.09,6.53
20.607,6.88,-0.36,-0.27,6.90
20.617,7.79,-1.05,1.46,8.00
20.627,9.05,-3.87,0.85,9.88
20.638,9.91,-6.83,0.65,12.06
20.647,9.38,-7.53,1.10,12.08
20.657,6.34,-6.37,0.78,9.03
20.667,3.09,-4.04,0.15,5.08
20.677,1.02,-1.16,-1.10,1.90
20.687,-0.13,2.04,-1.68,2.65
20.697,-1.09,4.37,-2.26,5.04
20.707,-1.38,5.29,-3.00,6.23
20.717,-0.58,5.08,-3.15,6.01
20.728,1.08,3.89,-2.96,5.01
20.737,2.44,2.41,-2.80,4.42
20.747,2.85,0.83,-2.69,4.01
20.757,2.47,-0.53,-2.48,3.54
20.768,1.58,-1.55,-2.28,3.18
20.777,0.91,-2.27,-2.10,3.22
20.787,0.43,-2.50,-1.78,3.10
20.797,-0.19,-2.32,-1.43,2.73
20.807,-0.77,-1.97,-1.13,2.40
20.817,-1.39,-1.80,-1.02,2.49
20.827,-1.85,-1.62,-1.02,2.67
20.837,-2.17,-1.40,-0.92,2.74
20.848,-2.33,-1.28,-0.89,2.81
20.858,-2.51,-1.35,-0.90,2.98
20.868,-2.72,-1.37,-0.79,3.15
20.877,-2.79,-1.23,-0.75,3.14
20.888,-2.90,-0.78,-0.69,3.08
20.898,-3.01,-0.49,-0.73,3.14
20.908,-2.75,-0.52,-0.85,2.93
20.918,-2.56,-0.42,-0.90,2.75
20.928,-2.41,-0.24,-0.83,2.56
20.938,-2.13,-0.03,-0.68,2.23
20.948,-1.68,-0.14,-0.50,1.76
20.958,-0.59,-0.11,0.09,0.61
20.968,0.71,-0.00,0.73,1.02
20.978,1.99,0.14,1.26,2.36
20.988,2.87,0.07,1.41,3.20
20.998,3.10,0.09,1.34,3.38
21.008,2.78,0.15,1.15,3.02
21.018,1.99,0.27,1.06,2.27
21.028,1.03,0.35,0.75,1.32
21.038,0.32,0.33,0.21,0.50
21.048,-0.27,0.07,-0.25,0.38
21.058,-0.40,-0.43,-0.32,0.68
21.068,0.02,-1.05,-0.24,1.08
21.078,0.57,-1.73,-0.01,1.82
21.088,0.99,-2.35,0.26,2.56
21.098,0.97,-2.63,0.63,2.87
21.108,0.59,-2.57,0.84,2.77
21.118,0.20,-2.43,0.79,2.56
21.128,-0.12,-2.22,0.42,2.27
21.138,-0.42,-1.92,-0.31,1.99
21.148,-0.95,-1.51,-1.06,2.07
21.158,-1.50,-0.92,-1.63,2.40
21.168,-1.70,-0.26,-1.49,2.27
21.178,-1.25,0.14,-0.71,1.45
21.188,0.27,-0.10,-0.24,0.37
21.198,2.34,-0.72,-0.12,2.45
21.208,3.84,-1.13,-0.03,4.00
21.218,4.27,-1.34,-0.39,4.49
21.228,3.92,-0.92,-0.93,4.13
21.238,2.68,0.19,-1.87,3.28
21.248,1.18,1.23,-2.69,3.18
21.258,-0.11,1.99,-3.06,3.65
21.268,-1.13,2.46,-3.06,4.09
21.278,-1.75,2.62,-2.83,4.24
21.288,-1.94,2.54,-2.49,4.05
21.298,-1.87,2.12,-1.93,3.42
21.308,-1.63,1.26,-1.27,2.42
21.318,-1.21,0.45,-0.75,1.49
21.328,-0.63,0.03,-0.46,0.78
21.338,-0.10,0.13,-0.14,0.22
21.348,0.23,0.59,-0.16,0.65
21.358,0.40,1.03,-0.11,1.11
21.368,0.36,0.90,-0.13,0.98
21.378,0.47,0.53,-0.21,0.74
21.388,0.69,0.30,-0.29,0.81
21.398,0.73,0.04,-0.11,0.74
21.408,0.68,-0.20,-0.16,0.72
21.418,0.46,-0.27,-0.13,0.55
21.428,0.15,-0.14,0.07,0.21
21.438,-0.01,0.10,0.04,0.11
21.448,-0.18,0.14,-0.00,0.23
21.458,-0.54,0.07,-0.02,0.55
21.468,-0.75,0.37,-0.10,0.84
21.478,-0.73,0.69,-0.09,1.01
21.488,-0.49,0.71,-0.21,0.88
21.498,-0.45,0.68,-0.24,0.85
21.508,-0.36,0.86,-0.17,0.95
21.518,-0.07,1.07,-0.62,1.24
21.528,-0.25,1.16,-0.79,1.43
21.538,-0.47,1.32,-0.60,1.52
21.548,-0.52,1.36,-0.59,1.57
21.558,-0.29,1.22,-0.61,1.40
21.568,-0.01,1.04,-0.62,1.20
21.578,0.23,0.78,-0.54,0.98
21.588,0.27,0.46,-0.43,0.68
21.598,0.26,0.17,-0.39,0.49
21.608,0.22,0.12,-0.40,0.47
21.618,0.15,0.32,-0.41,0.54
21.628,-0.02,0.44,-0.32,0.54
21.638,-0.29,0.45,-0.20,0.57
21.648,-0.54,0.44,-0.11,0.70
21.658,-0.91,0.41,-0.08,1.00
21.668,-0.72,0.24,0.04,0.76
21.678,0.07,0.07,0.24,0.26
21.688,0.50,0.08,0.24,0.56
21.698,0.27,0.12,0.12,0.32
21.708,0.23,0.25,0.20,0.39
21.718,-0.08,0.36,0.05,0.38
21.728,-0.37,0.51,0.06,0.64
21.738,-0.23,0.52,0.09,0.57
21.748,-0.04,0.33,-0.07,0.34
21.758,0.02,0.23,-0.07,0.24
21.768,-0.16,0.25,-0.14,0.33
21.778,-0.37,0.39,-0.13,0.55
21.788,-0.31,0.37,-0.09,0.49
21.798,-0.20,0.26,-0.06,0.33
21.808,-0.12,0.17,-0.13,0.25
21.818,-0.11,0.04,-0.23,0.26
21.828,-0.15,0.22,-0.25,0.37
21.838,-0.79,0.56,-0.33,1.02
21.848,-0.86,0.40,-0.27,0.98
21.858,-0.41,-0.00,-0.11,0.42
21.868,-0.32,-0.08,-0.22,0.39
21.878,0.42,0.87,-0.15,0.98
21.888,0.71,0.78,-0.46,1.15
21.898,-0.58,-0.24,-0.53,0.82
21.908,0.01,-0.44,-0.20,0.48
21.918,0.12,-0.23,-0.36,0.44
21.929,0.21,0.21,-0.35,0.46
21.938,0.10,0.73,-0.26,0.78
21.948,0.21,1.08,-0.45,1.19
21.959,0.17,0.94,-0.35,1.02
21.968,0.16,0.53,-0.33,0.64
21.978,0.12,0.23,-0.21,0.34
21.988,0.15,0.19,-0.22,0.33
21.998,0.07,0.23,-0.25,0.34
22.008,0.00,0.19,-0.45,0.49
22.018,-0.02,0.05,-0.53,0.53
22.029,-0.12,0.09,-0.46,0.48
22.038,-0.14,0.32,-0.48,0.59
22.048,-0.13,0.48,-0.41,0.65
22.058,0.03,0.56,-0.39,0.69
22.069,0.10,0.53,-0.32,0.63
22.078,-0.04,0.41,-0.30,0.51
22.089,-0.14,0.35,-0.33,0.50
22.099,-0.19,0.28,-0.37,0.50
22.109,-0.14,0.22,-0.28,0.38
22.118,-0.12,0.20,-0.19,0.30
22.129,-0.13,0.07,-0.22,0.27
22.139,-0.03,0.08,-0.31,0.33
22.149,-0.05,0.26,-0.39,0.47
22.159,-0.10,0.29,-0.40,0.51
22.169,-0.18,0.15,-0.31,0.39
22.179,-0.31,-0.01,-0.10,0.33
22.189,-0.40,-0.15,0.03,0.43
22.199,-0.36,-0.27,0.14,0.46
22.209,-0.35,-0.54,0.16,0.66
22.219,0.55,-1.93,-0.09,2.01
22.229,-0.17,-0.58,1.56,1.68
22.239,0.78,-1.00,0.18,1.28
22.249,0.31,-0.35,0.81,0.94
22.259,0.18,0.01,0.52,0.55
22.269,-0.05,0.52,0.41,0.66
22.279,-0.14,0.40,0.33,0.54
22.289,-0.35,-0.05,0.46,0.58
22.299,-0.80,0.08,0.43,0.91
22.309,-0.58,0.20,0.28,0.67
22.319,-0.34,0.04,0.14,0.36
22.329,-0.62,-0.19,-0.05,0.65
22.339,-0.60,-0.41,-0.03,0.72
22.349,-0.43,-0.55,0.01,0.70
22.359,-0.46,-0.32,0.04,0.56
22.369,-0.11,0.04,-0.00,0.11
22.379,0.63,0.13,0.10,0.65
22.389,0.60,0.24,0.16,0.67
22.399,0.30,0.01,0.11,0.32
22.409,0.44,-0.12,0.24,0.51
22.419,0.46,-0.14,0.34,0.59
22.429,0.24,-0.20,0.34,0.46
22.439,0.10,-0.38,0.26,0.47
22.449,-0.29,-0.28,0.17,0.44
22.459,-0.51,-0.12,0.06,0.53
22.469,-0.46,-0.02,0.04,0.46
22.479,-0.60,0.00,-0.01,0.60
22.489,-0.38,-0.11,0.03,0.40
22.499,0.08,-0.11,0.15,0.20
22.509,0.31,-0.04,0.18,0.36
22.519,0.26,-0.01,0.18,0.31
22.529,-0.27,-0.04,0.14,0.30
22.539,-0.77,-0.21,0.06,0.80
22.549,-0.63,-0.41,0.05,0.75
22.559,0.04,-0.50,0.06,0.50
22.569,0.46,-0.45,0.15,0.66
22.579,0.87,-0.38,0.27,0.99
22.589,0.58,-0.25,0.27,0.69
22.599,0.01,-0.19,0.22,0.29
22.609,-0.32,-0.16,0.32,0.48
22.619,-0.91,-0.11,0.24,0.94
22.629,-0.80,-0.14,0.11,0.82
22.639,-0.70,-0.38,-0.00,0.80
22.649,-0.60,-0.47,-0.03,0.76
22.659,-0.60,-0.36,0.01,0.70
22.669,-0.99,-0.21,0.01,1.02
22.679,-1.15,-0.13,-0.05,1.16
22.689,-0.20,-0.02,0.01,0.20
22.699,0.57,0.07,0.09,0.58
22.709,0.62,0.20,0.13,0.66
22.719,0.13,0.09,0.10,0.18
22.729,-0.28,-0.08,0.05,0.29
22.739,-0.53,-0.15,-0.09,0.55
22.749,-0.55,-0.15,-0.05,0.57
22.759,-0.45,-0.17,0.06,0.49
22.769,-0.48,-0.12,0.06,0.50
22.779,-0.45,-0.09,-0.03,0.46
22.789,-0.43,-0.15,0.05,0.46
22.799,-0.18,0.00,-0.08,0.19
22.809,0.17,-0.12,0.05,0.21
22.819,0.28,-0.06,0.13,0.31
22.829,0.03,0.06,0.07,0.10
22.839,-0.26,-0.04,0.05,0.26
22.849,-0.40,-0.21,0.08,0.46
22.859,-0.54,-0.28,0.06,0.61
22.869,-0.53,-0.44,0.01,0.69
22.879,-0.41,-0.57,0.09,0.71
22.889,-0.28,-0.50,0.09,0.58
22.899,-0.08,-0.36,0.16,0.40
22.909,0.20,-0.20,0.24,0.37
22.919,0.23,-0.02,0.27,0.36
22.929,0.11,0.22,0.24,0.34
22.939,-0.04,0.48,0.11,0.49
22.949,-0.02,0.16,-0.00,0.16
22.959,-0.17,-0.21,-0.04,0.27
