time,ax,ay,az,atotal
0.000,0.01,0.02,-0.08,0.09
0.010,0.10,-0.07,-0.12,0.17
0.020,-0.04,0.00,-0.15,0.15
0.030,-0.18,0.16,-0.24,0.34
0.040,-0.18,0.06,-0.30,0.35
0.050,-0.15,0.04,-0.18,0.24
0.060,-0.22,0.21,-0.05,0.31
0.070,-0.14,0.18,-0.11,0.25
0.080,-0.01,0.10,-0.16,0.19
0.090,0.05,0.09,-0.18,0.20
0.100,0.03,0.10,-0.15,0.19
0.110,-0.01,0.10,-0.16,0.18
0.120,-0.10,0.12,-0.16,0.22
0.130,-0.12,0.12,-0.16,0.23
0.140,-0.14,0.14,-0.17,0.26
0.150,-0.17,0.14,-0.14,0.26
0.160,-0.13,0.08,-0.11,0.19
0.170,-0.08,0.02,-0.11,0.14
0.180,-0.06,-0.00,-0.15,0.16
0.190,-0.04,-0.02,-0.13,0.13
0.200,-0.05,-0.02,-0.10,0.11
0.210,-0.06,-0.05,-0.11,0.14
0.220,-0.05,-0.05,-0.10,0.12
0.230,-0.02,-0.05,-0.11,0.12
0.240,-0.01,-0.02,-0.14,0.15
0.250,-0.05,0.04,-0.12,0.14
0.260,-0.11,0.05,-0.10,0.16
0.270,-0.11,-0.09,-0.10,0.17
0.280,-0.10,-0.12,-0.11,0.20
0.290,-0.18,-0.03,-0.12,0.22
0.300,-0.23,-0.08,-0.04,0.24
0.310,-0.14,-0.26,-0.02,0.30
0.320,-0.06,-0.27,-0.05,0.28
0.330,-0.09,-0.18,-0.05,0.20
0.340,-0.07,-0.13,-0.01,0.15
0.350,-0.08,-0.06,-0.03,0.10
0.360,-0.10,-0.06,-0.02,0.12
0.370,-0.09,-0.19,0.01,0.21
0.380,-0.11,-0.21,-0.02,0.24
0.390,-0.15,-0.18,0.02,0.24
0.400,-0.20,-0.21,0.02,0.29
0.410,-0.19,-0.22,-0.00,0.29
0.420,-0.11,-0.25,-0.01,0.27
0.430,-0.03,-0.28,-0.00,0.28
0.440,0.05,-0.27,-0.01,0.27
0.450,0.11,-0.24,-0.02,0.27
0.460,0.12,-0.19,-0.05,0.23
0.470,0.06,-0.13,-0.09,0.17
0.480,-0.02,-0.07,-0.12,0.14
0.490,-0.12,-0.02,-0.18,0.22
0.500,-0.16,0.03,-0.23,0.28
0.510,-0.17,0.03,-0.30,0.35
0.520,-0.13,0.05,-0.38,0.40
0.530,-0.05,0.11,-0.47,0.48
0.540,0.01,0.20,-0.55,0.58
0.550,0.09,0.26,-0.56,0.63
0.560,0.11,0.35,-0.53,0.64
0.570,0.12,0.41,-0.53,0.68
0.580,0.12,0.40,-0.55,0.69
0.590,0.13,0.38,-0.54,0.67
0.600,0.13,0.39,-0.47,0.62
0.611,0.07,0.42,-0.38,0.57
0.621,-0.00,0.41,-0.30,0.51
0.631,-0.14,0.40,-0.17,0.46
0.641,-0.26,0.35,-0.03,0.44
0.651,-0.34,0.23,0.15,0.44
0.661,-0.38,0.09,0.26,0.47
0.671,-0.35,-0.05,0.37,0.52
0.681,-0.23,-0.13,0.48,0.55
0.691,-0.09,-0.20,0.59,0.63
0.700,-0.02,-0.30,0.71,0.77
0.711,0.01,-0.43,0.80,0.91
0.721,0.07,-0.56,0.78,0.96
0.731,0.15,-0.71,0.70,1.01
0.741,0.23,-0.84,0.71,1.12
0.751,0.27,-0.93,0.71,1.20
0.761,0.25,-1.00,0.72,1.26
0.771,0.23,-1.02,0.66,1.23
0.781,0.15,-0.99,0.58,1.16
0.791,-0.00,-0.94,0.54,1.08
0.801,-0.16,-0.84,0.52,1.00
0.811,-0.31,-0.72,0.51,0.93
0.821,-0.44,-0.60,0.50,0.90
0.831,-0.48,-0.48,0.49,0.84
0.841,-0.44,-0.37,0.48,0.74
0.851,-0.36,-0.30,0.49,0.68
0.861,-0.36,-0.29,0.53,0.71
0.871,-0.31,-0.30,0.57,0.71
0.881,-0.31,-0.35,0.60,0.77
0.891,-0.38,-0.41,0.63,0.84
0.901,-0.42,-0.46,0.66,0.91
0.911,-0.41,-0.50,0.60,0.89
0.921,-0.33,-0.50,0.56,0.82
0.931,-0.26,-0.47,0.53,0.75
0.941,-0.21,-0.45,0.54,0.73
0.951,-0.17,-0.41,0.53,0.70
0.961,-0.10,-0.40,0.52,0.67
0.971,-0.04,-0.44,0.47,0.65
0.981,-0.01,-0.46,0.43,0.63
0.991,-0.07,-0.48,0.44,0.66
1.001,-0.17,-0.52,0.47,0.72
1.011,-0.27,-0.60,0.46,0.80
1.021,-0.35,-0.61,0.49,0.86
1.031,-0.41,-0.56,0.52,0.87
1.041,-0.49,-0.48,0.56,0.88
1.051,-0.55,-0.35,0.60,0.88
1.061,-0.53,-0.22,0.59,0.82
1.071,-0.53,-0.17,0.60,0.82
1.081,-0.48,-0.21,0.60,0.80
1.091,-0.46,-0.32,0.61,0.83
1.101,-0.45,-0.40,0.60,0.85
1.111,-0.44,-0.44,0.58,0.85
1.121,-0.42,-0.45,0.60,0.86
1.131,-0.36,-0.44,0.64,0.85
1.141,-0.30,-0.40,0.66,0.83
1.151,-0.22,-0.34,0.66,0.77
1.161,-0.16,-0.24,0.68,0.74
1.171,-0.10,-0.15,0.71,0.74
1.181,-0.08,-0.06,0.73,0.74
1.191,-0.12,-0.02,0.75,0.76
1.201,-0.18,-0.00,0.80,0.82
1.211,-0.23,-0.00,0.85,0.88
1.221,-0.27,-0.00,0.87,0.91
1.231,-0.30,0.03,0.90,0.95
1.241,-0.33,0.04,0.96,1.02
1.251,-0.37,0.07,1.04,1.10
1.261,-0.40,0.08,1.08,1.15
1.271,-0.42,0.08,1.12,1.20
1.281,-0.43,0.03,1.15,1.22
1.291,-0.41,-0.03,1.15,1.22
1.301,-0.38,-0.13,1.14,1.21
1.311,-0.33,-0.26,1.15,1.22
1.321,-0.28,-0.43,1.19,1.30
1.331,-0.25,-0.61,1.07,1.25
1.341,-0.14,-0.67,0.80,1.05
1.351,0.08,-0.57,0.52,0.78
1.361,0.32,-0.35,0.19,0.50
1.371,0.54,-0.03,-0.04,0.54
1.381,0.80,0.33,-0.13,0.87
1.391,1.08,0.57,-0.05,1.22
1.401,1.25,0.64,0.25,1.42
1.411,1.33,0.45,0.59,1.53
1.421,1.26,0.16,0.95,1.59
1.431,1.14,-0.13,1.30,1.73
1.441,0.89,-0.43,1.60,1.88
1.451,0.67,-0.62,1.73,1.96
1.461,0.55,-0.63,1.60,1.81
1.471,0.49,-0.46,1.67,1.80
1.481,0.30,-0.25,1.74,1.78
1.491,0.31,0.11,1.46,1.50
1.501,0.47,0.65,1.18,1.43
1.511,0.62,1.06,0.85,1.50
1.521,0.76,1.30,0.49,1.59
1.531,0.71,1.37,0.16,1.55
1.541,0.39,1.22,-0.26,1.31
1.551,-0.01,1.03,-0.50,1.15
1.561,-0.23,0.85,-0.73,1.14
1.571,-0.31,0.64,-1.05,1.27
1.581,-0.28,0.47,-1.37,1.47
1.591,-0.28,0.37,-1.74,1.80
1.601,-0.20,0.42,-2.06,2.11
1.611,-0.11,0.69,-2.31,2.42
1.621,-0.02,1.02,-2.41,2.62
1.631,0.05,1.29,-2.39,2.72
1.641,0.05,1.41,-2.32,2.71
1.651,0.06,1.38,-2.29,2.68
1.661,-0.04,1.12,-2.23,2.49
1.671,-0.11,0.79,-2.15,2.29
1.681,-0.07,0.49,-2.01,2.07
1.691,0.05,0.22,-1.85,1.87
1.701,0.10,-0.07,-1.71,1.71
1.711,0.10,-0.28,-1.61,1.64
1.721,0.09,-0.45,-1.50,1.57
1.731,-0.02,-0.50,-1.42,1.51
1.741,-0.18,-0.43,-1.31,1.39
1.751,-0.41,-0.30,-1.24,1.34
1.761,-0.65,-0.08,-1.25,1.41
1.771,-0.86,0.18,-1.24,1.52
1.782,-0.94,0.41,-1.30,1.65
1.791,-0.95,0.55,-1.30,1.70
1.801,-0.86,0.57,-1.23,1.60
1.811,-0.74,0.44,-1.15,1.44
1.822,-0.60,0.31,-1.05,1.25
1.831,-0.51,0.07,-0.95,1.08
1.842,-0.45,-0.15,-0.91,1.03
1.851,-0.39,-0.30,-0.85,0.98
1.862,-0.40,-0.38,-0.76,0.93
1.872,-0.40,-0.34,-0.63,0.82
1.882,-0.40,-0.26,-0.50,0.69
1.892,-0.42,-0.19,-0.43,0.63
1.902,-0.46,-0.15,-0.37,0.61
1.912,-0.49,-0.17,-0.28,0.59
1.922,-0.48,-0.24,-0.23,0.59
1.932,-0.46,-0.36,-0.18,0.61
1.942,-0.43,-0.47,-0.11,0.64
1.951,-0.40,-0.56,-0.10,0.70
1.962,-0.29,-0.58,-0.09,0.65
1.972,-0.17,-0.57,-0.15,0.61
1.982,-0.07,-0.52,-0.24,0.58
1.992,-0.04,-0.38,-0.27,0.46
2.002,-0.05,-0.23,-0.30,0.38
2.012,-0.09,-0.10,-0.28,0.31
2.022,-0.20,0.04,-0.20,0.29
2.032,-0.33,0.07,-0.19,0.39
2.042,-0.40,0.04,-0.20,0.45
2.052,-0.45,-0.08,-0.18,0.49
2.062,-0.38,-0.22,-0.15,0.47
2.072,-0.28,-0.35,-0.09,0.46
2.082,-0.21,-0.47,0.07,0.52
2.092,-0.15,-0.57,0.14,0.61
2.102,-0.11,-0.61,0.20,0.65
2.112,-0.11,-0.60,0.29,0.67
2.122,-0.16,-0.59,0.39,0.72
2.132,-0.19,-0.58,0.45,0.75
2.142,-0.21,-0.60,0.47,0.79
2.152,-0.23,-0.65,0.49,0.84
2.162,-0.23,-0.75,0.53,0.94
2.172,-0.20,-0.82,0.55,1.01
2.182,-0.15,-0.82,0.57,1.01
2.192,-0.14,-0.80,0.59,1.01
2.202,-0.14,-0.76,0.58,0.97
2.212,-0.12,-0.67,0.59,0.90
2.222,-0.11,-0.60,0.63,0.87
2.232,-0.07,-0.63,0.65,0.91
2.242,-0.05,-0.75,0.66,1.00
2.252,-0.03,-0.89,0.64,1.10
2.262,-0.01,-0.98,0.56,1.13
2.272,0.03,-1.08,0.46,1.17
2.282,0.20,-1.14,0.31,1.20
2.292,0.43,-1.17,0.10,1.25
2.302,0.68,-1.10,-0.15,1.30
2.312,0.96,-0.91,-0.32,1.36
2.322,1.09,-0.64,-0.40,1.33
2.332,1.10,-0.41,-0.42,1.25
2.342,1.14,-0.21,-0.49,1.26
2.352,1.31,0.02,-0.55,1.42
2.362,1.56,0.31,-0.61,1.71
2.372,1.90,0.61,-0.63,2.09
2.382,2.30,0.85,-0.57,2.51
2.392,2.67,1.02,-0.29,2.87
2.402,2.98,0.96,-0.00,3.13
2.412,3.11,0.58,0.27,3.17
2.422,3.16,0.04,0.48,3.20
2.432,3.32,-0.42,0.29,3.35
2.442,3.52,-0.63,-0.17,3.58
2.452,3.41,-0.45,-0.47,3.47
2.462,2.97,0.10,-0.63,3.04
2.472,2.58,0.65,-1.03,2.85
2.482,2.04,1.21,-1.51,2.81
2.492,1.43,1.80,-1.82,2.93
2.502,0.88,2.17,-1.97,3.05
2.512,0.32,2.18,-2.07,3.02
2.522,-0.07,1.97,-2.10,2.88
2.532,-0.21,1.78,-2.05,2.72
2.542,-0.16,1.68,-1.89,2.53
2.554,-0.24,1.60,-1.55,2.24
2.562,-0.49,1.48,-0.97,1.84
2.572,-0.89,1.18,-0.51,1.57
2.582,-1.28,0.84,-0.36,1.57
2.592,-1.50,0.58,-0.24,1.62
2.602,-1.63,0.37,-0.08,1.67
2.612,-1.62,0.16,-0.03,1.63
2.622,-1.31,0.01,0.07,1.31
2.632,-0.87,-0.13,0.19,0.90
2.642,-0.47,-0.19,0.32,0.60
2.652,-0.08,-0.22,0.29,0.38
2.662,0.11,-0.21,0.23,0.33
2.672,0.04,-0.14,0.18,0.23
2.682,-0.22,-0.03,0.13,0.26
2.692,-0.58,0.04,0.02,0.58
2.702,-0.97,0.15,-0.12,0.99
2.712,-1.36,0.25,-0.16,1.39
2.722,-1.59,0.33,-0.20,1.63
2.732,-1.62,0.39,-0.23,1.68
2.742,-1.57,0.43,-0.25,1.64
2.752,-1.49,0.49,-0.21,1.59
2.762,-1.47,0.51,-0.21,1.57
2.772,-1.47,0.49,-0.22,1.56
2.782,-1.44,0.41,-0.16,1.50
2.792,-1.56,0.25,-0.16,1.59
2.802,-1.75,0.03,-0.18,1.76
2.812,-1.90,-0.13,-0.17,1.92
2.822,-2.01,-0.20,-0.17,2.03
2.832,-2.13,-0.12,-0.14,2.14
2.842,-2.15,0.00,-0.07,2.15
2.852,-2.03,0.08,-0.11,2.03
2.862,-1.83,0.10,-0.12,1.83
2.872,-1.62,0.12,-0.17,1.63
2.882,-1.41,0.15,-0.18,1.43
2.892,-1.29,0.16,-0.11,1.30
2.902,-1.23,0.08,0.00,1.24
2.912,-1.18,-0.01,0.01,1.18
2.922,-1.00,-0.03,-0.00,1.00
2.932,-0.90,0.08,0.03,0.91
2.942,-0.94,0.27,0.07,0.98
2.952,-0.99,0.44,0.12,1.09
2.962,-1.02,0.58,0.18,1.19
2.972,-0.98,0.69,0.24,1.22
2.982,-0.91,0.70,0.30,1.19
2.992,-0.81,0.68,0.27,1.09
3.002,-0.76,0.70,0.31,1.08
3.012,-0.72,0.58,0.44,1.02
3.022,-0.74,0.45,0.47,0.99
3.032,-0.56,0.46,0.46,0.86
3.042,-0.44,0.26,0.43,0.67
3.052,-0.39,0.08,0.46,0.61
3.062,-0.39,0.07,0.46,0.61
3.072,-0.34,0.04,0.53,0.63
3.082,-0.30,-0.05,0.58,0.66
3.092,-0.21,0.01,0.59,0.63
3.102,-0.11,0.09,0.59,0.61
3.112,0.01,0.11,0.64,0.65
3.123,0.05,0.12,0.68,0.70
3.132,0.06,0.11,0.77,0.78
3.142,0.10,0.06,0.85,0.85
3.152,0.19,0.01,0.91,0.93
3.163,0.27,-0.01,0.94,0.98
3.173,0.37,0.03,1.02,1.09
3.183,0.53,0.09,0.99,1.13
3.193,0.70,0.14,0.91,1.15
3.203,0.83,0.15,0.79,1.15
3.213,0.91,0.20,0.75,1.20
3.223,0.86,0.20,0.82,1.20
3.233,0.82,0.17,0.79,1.15
3.243,0.97,0.19,0.82,1.28
3.253,1.35,0.25,0.72,1.55
3.263,2.01,0.38,0.49,2.10
3.273,3.00,0.66,0.39,3.10
3.283,3.89,0.95,0.38,4.02
3.293,4.23,1.14,0.41,4.41
3.303,4.12,1.25,0.58,4.34
3.313,3.76,1.29,0.67,4.03
3.323,3.26,1.19,0.59,3.52
3.333,2.73,0.79,0.63,2.91
3.343,2.28,0.41,0.39,2.35
3.353,2.05,0.48,0.10,2.11
3.363,1.64,0.73,-0.28,1.81
3.373,0.76,0.84,-0.59,1.27
3.383,-0.12,0.88,-1.03,1.36
3.393,-0.84,0.91,-1.51,1.95
3.403,-1.20,0.97,-1.93,2.47
3.413,-1.21,1.08,-2.15,2.69
3.423,-0.82,1.11,-2.16,2.56
3.433,-0.25,0.96,-2.06,2.28
3.443,0.45,0.71,-1.96,2.13
3.453,0.81,0.45,-1.91,2.13
3.463,0.70,0.20,-1.88,2.01
3.473,0.31,0.04,-1.85,1.88
3.483,-0.21,-0.01,-1.77,1.78
3.493,-0.71,0.00,-1.55,1.71
3.503,-1.00,0.09,-1.27,1.62
3.513,-1.01,0.17,-1.02,1.45
3.523,-0.80,0.18,-0.90,1.22
3.533,-0.60,0.19,-0.80,1.02
3.543,-0.52,0.22,-0.73,0.93
3.553,-0.53,0.26,-0.67,0.89
3.563,-0.69,0.28,-0.58,0.94
3.573,-0.88,0.28,-0.52,1.06
3.583,-1.17,0.23,-0.48,1.29
3.593,-1.49,0.11,-0.40,1.55
3.603,-1.73,-0.04,-0.38,1.78
3.613,-1.89,-0.20,-0.41,1.95
3.623,-2.00,-0.34,-0.43,2.08
3.633,-2.06,-0.49,-0.42,2.16
3.643,-2.14,-0.56,-0.49,2.27
3.653,-2.28,-0.56,-0.54,2.41
3.663,-2.43,-0.50,-0.52,2.53
3.673,-2.54,-0.39,-0.49,2.62
3.683,-2.59,-0.32,-0.41,2.65
3.693,-2.62,-0.36,-0.29,2.66
3.703,-2.65,-0.50,-0.33,2.71
3.713,-2.55,-0.76,-0.41,2.69
3.723,-2.31,-1.00,-0.62,2.60
3.733,-1.96,-1.19,-0.80,2.42
3.743,-1.45,-1.22,-0.79,2.05
3.753,-0.87,-1.02,-0.68,1.50
3.763,-0.46,-0.68,-0.57,1.00
3.773,-0.23,-0.31,-0.49,0.62
3.783,-0.12,-0.01,-0.42,0.44
3.793,-0.32,0.30,-0.52,0.68
3.803,-0.57,0.63,-0.46,0.96
3.813,-0.66,0.71,-0.46,1.07
3.823,-0.87,0.66,-0.36,1.15
3.833,-1.09,0.58,-0.15,1.25
3.843,-1.07,0.41,0.05,1.15
3.853,-0.81,0.17,0.21,0.86
3.863,-0.54,-0.10,0.26,0.61
3.873,-0.36,-0.30,0.32,0.57
3.883,-0.16,-0.46,0.37,0.61
3.893,-0.05,-0.65,0.34,0.73
3.903,-0.01,-0.87,0.26,0.91
3.913,-0.02,-1.02,0.20,1.04
3.923,-0.00,-1.10,0.19,1.11
3.933,0.14,-1.07,0.24,1.10
3.943,0.27,-0.93,0.32,1.02
3.953,0.33,-0.70,0.32,0.83
3.963,0.29,-0.54,0.26,0.67
3.973,0.22,-0.47,0.18,0.55
3.983,0.14,-0.50,0.08,0.53
3.993,0.10,-0.55,0.08,0.57
4.003,0.14,-0.61,0.11,0.63
4.013,0.20,-0.60,0.15,0.65
4.023,0.25,-0.54,0.15,0.61
4.033,0.30,-0.48,0.16,0.58
4.043,0.41,-0.41,0.14,0.60
4.053,0.65,-0.47,0.09,0.81
4.063,0.92,-0.60,0.10,1.10
4.073,1.21,-0.69,0.05,1.39
4.083,1.55,-0.63,-0.09,1.67
4.093,1.81,-0.39,-0.25,1.87
4.103,2.02,-0.11,-0.27,2.04
4.113,2.12,0.26,-0.25,2.15
4.123,2.27,0.69,-0.08,2.37
4.133,2.46,0.99,0.19,2.66
4.143,2.74,1.10,0.40,2.98
4.153,3.07,0.99,0.51,3.26
4.163,3.39,0.73,0.66,3.53
4.173,3.56,0.40,0.81,3.67
4.183,3.60,-0.00,0.82,3.70
4.193,3.51,-0.35,0.63,3.59
4.203,3.26,-0.48,0.35,3.31
4.213,2.71,-0.35,0.04,2.73
4.223,1.94,-0.06,-0.37,1.98
4.233,1.39,0.39,-0.73,1.61
4.243,1.04,0.90,-1.11,1.77
4.253,0.76,1.30,-1.45,2.10
4.263,0.70,1.50,-1.64,2.33
4.273,0.91,1.33,-1.70,2.35
4.284,1.10,0.89,-1.70,2.21
4.293,1.16,0.43,-1.53,1.97
4.303,0.99,0.20,-1.31,1.65
4.313,0.64,0.17,-1.22,1.39
4.323,0.10,0.41,-1.11,1.19
4.333,-0.55,0.73,-0.98,1.34
4.343,-1.12,1.08,-1.00,1.85
4.353,-1.56,1.45,-0.97,2.34
4.364,-1.80,1.71,-0.80,2.61
4.373,-1.85,1.76,-0.68,2.64
4.384,-1.75,1.65,-0.66,2.49
4.393,-1.63,1.43,-0.59,2.25
4.403,-1.46,1.09,-0.52,1.90
4.413,-1.26,0.73,-0.49,1.54
4.423,-1.11,0.40,-0.47,1.27
4.433,-1.08,0.17,-0.46,1.19
4.444,-1.28,-0.01,-0.50,1.38
4.454,-1.53,-0.16,-0.56,1.64
4.464,-1.80,-0.37,-0.61,1.94
4.474,-2.09,-0.61,-0.59,2.25
4.484,-2.35,-0.72,-0.55,2.52
4.494,-2.51,-0.75,-0.63,2.69
4.503,-2.56,-0.71,-0.74,2.76
4.514,-2.61,-0.57,-0.75,2.78
4.524,-2.65,-0.40,-0.60,2.75
4.534,-2.62,-0.25,-0.47,2.67
4.544,-2.53,-0.16,-0.42,2.57
4.555,-2.40,-0.09,-0.38,2.43
4.564,-2.25,-0.04,-0.37,2.28
4.574,-2.13,0.01,-0.35,2.16
4.584,-1.99,0.06,-0.38,2.02
4.594,-1.72,0.02,-0.36,1.76
4.604,-1.44,0.02,-0.36,1.48
4.614,-1.14,0.13,-0.27,1.18
4.624,-0.91,0.27,-0.21,0.97
4.634,-0.85,0.38,-0.18,0.95
4.644,-0.86,0.46,-0.04,0.97
4.654,-0.86,0.51,0.13,1.01
4.664,-0.73,0.43,0.24,0.88
4.674,-0.56,0.26,0.26,0.67
4.684,-0.41,0.05,0.21,0.46
4.694,-0.31,-0.10,0.13,0.35
4.704,-0.23,-0.14,0.05,0.27
4.714,-0.24,-0.14,0.06,0.28
4.724,-0.31,-0.11,0.12,0.35
4.734,-0.33,0.01,0.19,0.38
4.744,-0.36,0.16,0.18,0.44
4.754,-0.43,0.28,0.17,0.54
4.764,-0.51,0.40,0.21,0.68
4.774,-0.58,0.48,0.29,0.81
4.784,-0.74,0.47,0.44,0.98
4.794,-0.82,0.35,0.54,1.04
4.804,-0.94,0.20,0.55,1.11
4.814,-1.08,0.00,0.55,1.22
4.824,-1.10,-0.15,0.61,1.27
4.834,-1.04,-0.26,0.66,1.26
4.844,-1.05,-0.28,0.69,1.29
4.854,-0.84,-0.30,0.64,1.09
4.864,-0.94,-0.38,0.65,1.21
4.874,-0.99,-0.29,0.67,1.23
4.884,-0.88,-0.16,0.71,1.14
4.894,-0.84,-0.19,0.79,1.17
4.904,-0.82,-0.21,0.88,1.22
4.914,-0.83,-0.26,0.97,1.30
4.924,-0.75,-0.28,1.01,1.29
4.934,-0.77,-0.20,0.98,1.26
4.944,-0.80,-0.04,0.91,1.21
4.954,-0.69,0.15,0.88,1.12
4.964,-0.47,0.34,0.85,1.02
4.974,-0.33,0.51,0.82,1.02
4.984,-0.17,0.59,0.84,1.04
4.994,0.03,0.64,0.84,1.05
5.004,0.20,0.67,0.88,1.13
5.014,0.38,0.71,0.91,1.22
5.024,0.42,0.75,0.87,1.22
5.034,0.29,0.76,0.75,1.10
5.044,0.46,0.75,0.53,1.02
5.054,1.10,0.78,0.27,1.38
5.064,2.05,0.93,0.14,2.25
5.074,3.06,1.12,0.01,3.26
5.084,3.61,1.33,-0.15,3.85
5.094,3.24,1.50,-0.26,3.58
5.104,2.36,1.69,-0.02,2.90
5.114,1.32,1.77,0.42,2.25
5.124,0.23,1.52,0.78,1.73
5.134,-0.67,0.94,0.97,1.51
5.144,-1.20,0.37,1.00,1.61
5.154,-1.16,-0.13,0.73,1.37
5.164,-0.81,-0.29,0.41,0.95
5.174,-0.46,-0.13,0.05,0.48
5.184,-0.14,0.23,-0.52,0.59
5.194,-0.12,0.65,-1.15,1.33
5.204,-0.19,1.00,-1.86,2.12
5.214,-0.26,1.21,-2.54,2.83
5.224,-0.32,1.19,-3.01,3.26
5.234,-0.37,1.09,-3.24,3.44
5.244,-0.42,1.03,-3.27,3.45
5.254,-0.39,0.98,-2.98,3.17
5.264,-0.21,0.95,-2.58,2.76
5.274,-0.01,0.98,-2.26,2.46
5.284,0.21,1.13,-1.95,2.26
5.294,0.33,1.28,-1.74,2.19
5.304,0.29,1.37,-1.57,2.11
5.314,0.22,1.32,-1.43,1.96
5.324,0.17,1.08,-1.30,1.70
5.334,0.25,0.74,-1.19,1.42
5.344,0.25,0.28,-1.17,1.23
5.354,0.08,-0.24,-1.07,1.10
5.364,-0.04,-0.63,-1.01,1.19
5.374,-0.03,-0.87,-0.98,1.31
5.384,-0.01,-0.91,-0.98,1.33
5.394,-0.09,-0.81,-0.94,1.25
5.404,-0.38,-0.53,-0.95,1.15
5.414,-0.76,-0.20,-0.96,1.24
5.424,-1.04,0.08,-0.94,1.41
5.434,-1.15,0.28,-0.91,1.50
5.444,-1.15,0.40,-0.88,1.50
5.454,-0.93,0.41,-0.85,1.32
5.464,-0.61,0.31,-0.80,1.06
5.474,-0.38,0.14,-0.75,0.85
5.484,-0.16,-0.02,-0.69,0.71
5.494,-0.03,-0.15,-0.62,0.64
5.504,0.07,-0.23,-0.54,0.59
5.514,0.07,-0.29,-0.45,0.54
5.524,0.00,-0.30,-0.38,0.48
5.534,-0.05,-0.28,-0.28,0.39
5.544,-0.17,-0.31,-0.20,0.41
5.554,-0.28,-0.36,-0.08,0.46
5.564,-0.31,-0.41,0.02,0.51
5.574,-0.32,-0.48,0.08,0.58
5.584,-0.26,-0.49,0.06,0.56
5.594,-0.17,-0.41,0.05,0.44
5.604,-0.11,-0.31,0.06,0.33
5.614,-0.09,-0.20,0.02,0.22
5.624,-0.10,-0.10,-0.05,0.15
5.634,-0.14,-0.07,-0.12,0.20
5.644,-0.24,-0.03,-0.16,0.29
5.655,-0.36,-0.04,-0.22,0.43
5.664,-0.44,-0.04,-0.29,0.52
5.674,-0.51,-0.01,-0.29,0.59
5.685,-0.49,0.02,-0.22,0.54
5.694,-0.47,0.02,-0.13,0.49
5.705,-0.46,-0.03,-0.04,0.46
5.714,-0.42,-0.09,0.03,0.43
5.725,-0.33,-0.20,0.03,0.38
5.735,-0.24,-0.31,0.01,0.40
5.745,-0.14,-0.40,-0.02,0.43
5.755,0.01,-0.45,-0.00,0.45
5.765,0.15,-0.50,0.00,0.52
5.775,0.20,-0.47,0.06,0.52
5.785,0.23,-0.41,0.16,0.50
5.794,0.26,-0.33,0.23,0.47
5.805,0.28,-0.31,0.30,0.52
5.815,0.24,-0.36,0.45,0.62
5.825,0.13,-0.45,0.58,0.74
5.835,0.01,-0.61,0.52,0.80
5.844,-0.07,-0.80,0.49,0.94
5.855,-0.02,-0.97,0.52,1.10
5.865,0.13,-1.01,0.55,1.15
5.875,0.24,-0.94,0.56,1.12
5.885,0.38,-0.82,0.53,1.05
5.895,0.50,-0.74,0.50,1.02
5.905,0.68,-0.70,0.42,1.06
5.915,0.95,-0.64,0.34,1.19
5.925,1.20,-0.59,0.34,1.38
5.935,1.48,-0.54,0.37,1.62
5.945,1.81,-0.46,0.48,1.92
5.955,2.11,-0.47,0.72,2.28
5.965,2.48,-0.53,0.88,2.68
5.975,2.78,-0.60,0.94,3.00
5.985,2.90,-0.67,0.99,3.14
5.995,2.86,-0.62,0.91,3.07
6.005,2.80,-0.45,0.72,2.92
6.015,2.68,-0.22,0.47,2.73
6.025,2.51,0.03,0.10,2.51
6.035,2.54,0.40,-0.41,2.60
6.045,2.55,0.73,-1.12,2.88
6.055,2.54,0.95,-1.78,3.24
6.065,2.28,1.19,-2.23,3.40
6.075,1.66,1.43,-2.39,3.24
6.085,0.98,1.70,-2.44,3.13
6.095,0.42,2.04,-2.37,3.15
6.105,0.01,2.38,-2.16,3.21
6.115,-0.27,2.58,-1.93,3.23
6.125,-0.46,2.54,-1.56,3.02
6.135,-0.74,2.24,-1.21,2.65
6.145,-1.05,1.77,-1.06,2.32
6.155,-1.26,1.29,-1.00,2.06
6.165,-1.30,0.83,-0.90,1.79
6.175,-1.23,0.42,-0.80,1.53
6.185,-1.17,0.19,-0.89,1.48
6.195,-1.07,0.18,-1.00,1.48
6.205,-0.95,0.31,-1.09,1.47
6.215,-0.87,0.53,-1.19,1.56
6.225,-0.74,0.76,-1.19,1.59
6.235,-0.78,0.92,-1.15,1.67
6.245,-0.91,1.10,-1.14,1.82
6.255,-1.05,1.22,-1.03,1.91
6.265,-1.25,1.21,-0.92,1.97
6.275,-1.41,1.15,-0.87,2.01
6.285,-1.46,1.02,-0.76,1.93
6.295,-1.40,0.89,-0.67,1.79
6.305,-1.29,0.74,-0.61,1.61
6.315,-1.18,0.56,-0.47,1.39
6.325,-1.15,0.39,-0.32,1.25
6.335,-1.18,0.27,-0.22,1.23
6.345,-1.26,0.17,-0.11,1.27
6.355,-1.41,0.04,-0.09,1.41
6.365,-1.61,-0.05,-0.15,1.61
6.375,-1.76,-0.03,-0.24,1.78
6.385,-1.88,0.06,-0.31,1.91
6.395,-1.94,0.25,-0.24,1.97
6.405,-1.80,0.34,-0.22,1.85
6.415,-1.48,0.32,-0.26,1.53
6.425,-1.07,0.33,-0.23,1.14
6.435,-0.73,0.35,-0.18,0.83
6.445,-0.58,0.42,-0.15,0.73
6.455,-0.50,0.47,-0.10,0.69
6.465,-0.73,0.35,-0.03,0.81
6.475,-0.65,0.31,-0.07,0.72
6.485,-0.61,0.41,-0.02,0.73
6.495,-0.83,0.36,0.07,0.91
6.505,-0.74,0.24,0.19,0.80
6.515,-0.56,0.09,0.18,0.59
6.525,-0.41,0.02,0.15,0.44
6.535,-0.38,0.13,0.06,0.40
6.545,-0.49,0.39,0.03,0.63
6.555,-0.64,0.68,0.08,0.93
6.565,-0.71,0.79,0.16,1.07
6.575,-0.68,0.71,0.15,1.00
6.585,-0.62,0.51,0.17,0.82
6.595,-0.60,0.27,0.27,0.71
6.605,-0.62,0.13,0.40,0.75
6.615,-0.58,0.11,0.55,0.80
6.625,-0.45,0.17,0.59,0.76
6.635,-0.23,0.22,0.72,0.79
6.645,-0.05,0.24,0.77,0.80
6.655,0.08,0.20,0.74,0.77
6.665,0.13,0.16,0.76,0.78
6.675,0.05,0.12,0.83,0.84
6.685,-0.06,0.02,0.95,0.95
6.695,-0.08,-0.07,1.05,1.05
6.705,0.00,-0.13,1.18,1.18
6.715,0.11,-0.18,1.25,1.26
6.725,0.29,-0.22,1.25,1.30
6.735,0.54,-0.27,1.20,1.35
6.745,0.92,-0.29,1.00,1.39
6.755,1.26,-0.13,0.73,1.47
6.765,1.62,0.22,0.29,1.66
6.775,1.92,0.69,-0.25,2.06
6.785,2.19,1.11,-0.46,2.50
6.795,2.75,1.38,-0.41,3.10
6.806,3.84,1.62,-0.25,4.17
6.815,4.68,1.60,-0.14,4.95
6.825,4.88,1.31,0.23,5.06
6.835,4.35,0.94,0.44,4.47
6.845,2.93,0.62,0.25,3.00
6.855,1.68,0.66,-0.03,1.80
6.865,0.82,0.72,-0.04,1.10
6.875,0.27,0.85,-0.37,0.97
6.885,-0.30,1.07,-0.98,1.48
6.896,-0.86,1.30,-1.49,2.16
6.905,-1.18,1.47,-1.93,2.70
6.915,-1.22,1.55,-2.39,3.10
6.925,-0.92,1.51,-2.68,3.21
6.935,-0.29,1.30,-2.79,3.10
6.945,0.46,0.92,-2.74,2.93
6.956,1.13,0.50,-2.52,2.81
6.966,1.37,0.21,-2.28,2.67
6.976,1.05,0.00,-2.01,2.27
6.986,0.47,-0.02,-1.77,1.83
6.995,-0.23,0.08,-1.60,1.62
7.006,-0.77,0.25,-1.52,1.72
7.016,-1.11,0.41,-1.45,1.87
7.026,-1.01,0.49,-1.31,1.73
7.036,-0.77,0.45,-1.22,1.51
7.046,-0.56,0.34,-1.09,1.27
7.056,-0.49,0.24,-1.01,1.15
7.066,-0.51,0.17,-0.94,1.09
7.076,-0.66,0.14,-0.94,1.16
7.086,-0.82,0.14,-0.89,1.22
7.095,-1.01,0.13,-0.81,1.30
7.106,-1.20,0.07,-0.74,1.41
7.116,-1.40,-0.02,-0.70,1.57
7.126,-1.46,-0.06,-0.72,1.63
7.136,-1.48,-0.09,-0.72,1.65
7.146,-1.44,-0.03,-0.67,1.59
7.156,-1.41,0.04,-0.65,1.55
7.166,-1.43,0.13,-0.69,1.59
7.176,-1.52,0.21,-0.75,1.71
7.186,-1.64,0.27,-0.82,1.85
7.196,-1.68,0.29,-0.89,1.92
7.206,-1.66,0.26,-0.91,1.91
7.216,-1.60,0.19,-0.92,1.85
7.226,-1.50,0.07,-0.86,1.73
7.236,-1.38,-0.06,-0.78,1.59
7.246,-1.35,-0.18,-0.66,1.51
7.256,-1.36,-0.29,-0.59,1.52
7.266,-1.50,-0.59,-0.55,1.70
7.276,-1.34,-0.95,-0.30,1.67
7.286,-1.31,-1.15,-0.19,1.75
7.296,-1.54,-1.14,-0.23,1.93
7.306,-1.63,-1.04,-0.33,1.96
7.316,-1.44,-0.87,-0.40,1.73
7.326,-1.12,-0.60,-0.39,1.33
7.336,-0.78,-0.23,-0.39,0.91
7.346,-0.46,0.16,-0.36,0.61
7.356,-0.28,0.42,-0.40,0.64
7.366,-0.19,0.62,-0.43,0.78
7.376,-0.12,0.73,-0.37,0.82
7.386,-0.13,0.61,-0.23,0.67
7.396,-0.16,0.34,-0.14,0.40
7.406,-0.26,0.03,-0.02,0.27
7.416,-0.39,-0.28,0.05,0.49
7.426,-0.50,-0.40,0.05,0.64
7.436,-0.59,-0.37,0.04,0.70
7.446,-0.63,-0.30,0.00,0.70
7.456,-0.63,-0.28,-0.07,0.69
7.466,-0.54,-0.31,-0.09,0.63
7.476,-0.32,-0.36,-0.07,0.48
7.486,-0.08,-0.43,-0.07,0.45
7.496,0.09,-0.52,0.06,0.53
7.506,0.16,-0.58,0.10,0.61
7.516,0.18,-0.63,0.12,0.66
7.526,0.15,-0.62,0.10,0.64
7.536,0.17,-0.69,0.03,0.71
7.546,0.25,-0.60,0.11,0.66
7.556,0.21,-0.43,0.19,0.52
7.566,0.15,-0.32,0.27,0.44
7.576,0.09,-0.28,0.26,0.39
7.586,0.11,-0.34,0.22,0.42
7.596,0.25,-0.35,0.26,0.50
7.606,0.45,-0.30,0.26,0.59
7.616,0.67,-0.29,0.09,0.73
7.626,0.96,-0.25,-0.15,1.00
7.636,1.34,-0.17,-0.46,1.43
7.646,1.59,-0.19,-0.62,1.72
7.656,1.74,-0.31,-0.58,1.86
7.666,1.94,-0.45,-0.39,2.03
7.676,2.23,-0.53,-0.08,2.29
7.686,2.57,-0.54,0.19,2.63
7.696,2.79,-0.61,0.52,2.91
7.706,2.95,-0.77,0.89,3.17
7.716,3.18,-0.91,1.11,3.49
7.726,3.58,-0.91,1.23,3.89
7.736,3.94,-0.80,1.10,4.17
7.746,4.16,-0.57,0.65,4.25
7.756,4.26,-0.23,0.05,4.26
7.766,4.13,0.14,-0.54,4.17
7.776,3.69,0.51,-0.92,3.83
7.786,3.10,0.91,-1.10,3.41
7.796,2.40,1.18,-1.32,2.98
7.806,1.50,1.32,-1.55,2.53
7.816,0.58,1.52,-1.51,2.22
7.826,-0.22,1.71,-1.26,2.13
7.836,-0.66,1.81,-0.97,2.16
7.846,-0.82,1.76,-0.90,2.14
7.856,-0.92,1.66,-0.97,2.13
7.866,-1.16,1.47,-0.99,2.12
7.876,-1.52,1.18,-0.89,2.12
7.886,-1.82,0.97,-0.84,2.23
7.896,-1.90,0.81,-0.72,2.19
7.906,-1.81,0.63,-0.70,2.04
7.916,-1.73,0.36,-0.79,1.93
7.926,-1.63,0.17,-0.90,1.87
7.936,-1.47,0.17,-0.96,1.77
7.946,-1.42,0.31,-0.89,1.71
7.956,-1.38,0.48,-0.80,1.66
7.966,-1.24,0.66,-0.81,1.62
7.976,-1.17,0.80,-0.85,1.65
7.986,-1.08,0.92,-0.83,1.65
7.996,-1.08,0.94,-0.79,1.64
8.006,-1.15,0.86,-0.81,1.65
8.016,-1.36,0.72,-0.80,1.73
8.026,-1.55,0.53,-0.74,1.79
8.036,-1.71,0.30,-0.70,1.88
8.046,-1.83,0.16,-0.66,1.95
8.056,-1.84,0.14,-0.64,1.96
8.066,-1.86,0.17,-0.63,1.97
8.076,-1.93,0.31,-0.58,2.04
8.086,-2.02,0.46,-0.57,2.15
8.096,-2.06,0.55,-0.59,2.21
8.107,-1.98,0.61,-0.66,2.18
8.117,-1.69,0.69,-0.51,1.89
8.127,-1.38,0.75,-0.38,1.61
8.137,-1.25,0.74,-0.31,1.48
8.147,-1.15,0.63,-0.24,1.33
8.157,-1.08,0.48,-0.17,1.19
8.167,-1.07,0.32,-0.12,1.12
8.176,-1.04,0.21,-0.03,1.06
8.187,-1.07,0.07,-0.01,1.07
8.197,-1.03,-0.07,0.09,1.03
8.206,-0.92,-0.13,0.12,0.94
8.217,-0.74,-0.11,0.13,0.76
8.227,-0.73,-0.31,0.07,0.80
8.237,-0.49,0.05,-0.01,0.49
8.247,-0.53,0.41,0.07,0.67
8.257,-0.53,0.43,0.20,0.71
8.267,-0.37,0.35,0.20,0.54
8.277,-0.46,0.39,0.21,0.64
8.287,-0.56,0.32,0.37,0.74
8.296,-0.45,0.20,0.41,0.64
8.307,-0.43,0.16,0.42,0.62
8.317,-0.54,0.19,0.48,0.74
8.327,-0.62,0.21,0.57,0.87
8.337,-0.66,0.23,0.54,0.89
8.347,-0.68,0.22,0.57,0.92
8.357,-0.68,0.17,0.59,0.91
8.367,-0.61,0.11,0.61,0.87
8.377,-0.49,0.06,0.63,0.80
8.387,-0.41,0.09,0.67,0.79
8.397,-0.39,0.21,0.73,0.86
8.407,-0.28,0.26,0.75,0.84
8.417,-0.05,0.28,0.76,0.81
8.427,-0.05,0.22,0.77,0.80
8.437,-0.12,0.10,0.82,0.83
8.447,-0.07,0.00,0.96,0.96
8.457,0.00,-0.10,1.06,1.06
8.467,0.06,-0.11,1.08,1.08
8.477,0.01,-0.12,1.03,1.03
8.487,-0.06,-0.07,0.95,0.95
8.497,-0.08,0.04,0.97,0.97
8.507,-0.06,0.10,1.07,1.08
8.517,0.11,0.19,0.89,0.92
8.527,0.37,0.39,0.57,0.78
8.537,0.87,0.65,0.27,1.12
8.547,1.45,0.94,0.08,1.73
8.557,2.04,1.11,0.16,2.33
8.567,2.59,1.03,0.27,2.80
8.577,2.92,0.84,0.40,3.07
8.587,3.03,0.57,0.53,3.13
8.597,3.08,0.40,0.59,3.16
8.607,3.05,0.59,0.42,3.14
8.617,2.68,1.06,0.11,2.88
8.627,1.90,1.48,-0.14,2.42
8.637,1.63,1.83,-0.22,2.46
8.647,1.84,2.01,-0.51,2.77
8.657,1.96,2.04,-0.76,2.93
8.667,1.94,1.80,-0.89,2.79
8.677,1.69,1.42,-1.06,2.45
8.687,1.40,1.12,-1.09,2.10
8.697,1.05,0.80,-1.22,1.80
8.707,0.56,0.48,-1.35,1.54
8.717,0.01,0.15,-1.52,1.52
8.727,-0.32,-0.06,-1.65,1.68
8.737,-0.37,-0.14,-1.74,1.78
8.747,-0.04,-0.08,-1.70,1.70
8.757,0.41,0.09,-1.67,1.73
8.767,0.78,0.29,-1.79,1.97
8.777,1.03,0.45,-1.94,2.25
8.787,0.90,0.51,-2.01,2.26
8.797,0.51,0.52,-2.00,2.13
8.807,-0.08,0.56,-1.82,1.91
8.817,-0.67,0.66,-1.48,1.75
8.827,-1.02,0.67,-1.24,1.74
8.837,-1.20,0.68,-1.10,1.77
8.847,-1.22,0.58,-1.03,1.70
8.857,-1.13,0.43,-1.03,1.59
8.867,-1.09,0.24,-1.01,1.50
8.877,-1.09,-0.01,-0.99,1.47
8.887,-1.18,-0.26,-0.97,1.55
8.897,-1.31,-0.46,-0.92,1.67
8.907,-1.51,-0.62,-0.93,1.88
8.917,-1.66,-0.67,-0.89,2.00
8.927,-1.68,-0.60,-0.92,2.00
8.937,-1.70,-0.45,-0.91,1.98
8.947,-1.78,-0.30,-0.98,2.05
8.957,-1.95,-0.14,-1.11,2.24
8.967,-2.12,0.01,-1.23,2.45
8.977,-2.18,0.13,-1.30,2.54
8.987,-2.13,0.19,-1.40,2.55
8.997,-2.05,0.16,-1.34,2.45
9.007,-1.94,0.10,-1.23,2.30
9.017,-1.82,-0.03,-1.11,2.14
9.027,-1.74,-0.18,-1.04,2.03
9.037,-1.68,-0.34,-1.00,1.99
9.047,-1.64,-0.38,-1.04,1.98
9.057,-1.57,-0.30,-1.04,1.90
9.067,-1.42,-0.26,-1.03,1.77
9.077,-1.17,-0.27,-1.06,1.60
9.087,-0.91,-0.25,-0.96,1.35
9.097,-0.79,-0.17,-0.94,1.25
9.107,-0.81,0.01,-0.78,1.12
9.117,-0.80,0.15,-0.53,0.97
9.127,-0.74,0.17,-0.44,0.88
9.137,-0.65,0.21,-0.43,0.81
9.147,-0.58,0.23,-0.38,0.73
9.157,-0.53,0.18,-0.39,0.68
9.167,-0.43,0.04,-0.40,0.59
9.177,-0.21,-0.11,-0.32,0.39
9.187,0.01,-0.22,-0.25,0.33
9.197,0.05,-0.24,-0.17,0.30
9.207,0.04,-0.21,-0.08,0.23
9.217,-0.09,-0.24,-0.01,0.26
9.227,-0.23,-0.30,0.03,0.37
9.237,-0.37,-0.36,0.05,0.52
9.247,-0.49,-0.41,0.05,0.64
9.257,-0.49,-0.39,0.01,0.63
9.267,-0.40,-0.38,-0.08,0.56
9.277,-0.33,-0.43,-0.14,0.56
9.287,-0.17,-0.35,-0.13,0.41
9.297,0.02,-0.26,-0.09,0.28
9.307,0.15,-0.20,-0.03,0.25
9.317,0.22,-0.21,0.08,0.32
9.327,0.26,-0.21,0.23,0.40
9.337,0.08,-0.24,0.34,0.42
9.347,-0.18,-0.35,0.45,0.60
9.358,-0.56,-0.41,0.56,0.89
9.367,-0.83,-0.48,0.60,1.13
9.378,-0.92,-0.62,0.57,1.25
9.387,-0.85,-0.69,0.49,1.20
9.397,-0.54,-0.60,0.39,0.90
9.407,-0.10,-0.54,0.31,0.64
9.417,0.31,-0.55,0.24,0.67
9.427,0.77,-0.57,0.23,0.99
9.437,1.29,-0.54,0.19,1.42
9.448,1.67,-0.46,0.07,1.74
9.458,1.83,-0.29,-0.04,1.86
9.468,1.78,-0.19,-0.08,1.79
9.478,1.75,-0.33,-0.27,1.80
9.488,1.93,-0.58,-0.52,2.08
9.498,2.10,-0.84,-0.61,2.35
9.508,2.24,-0.96,-0.42,2.47
9.518,2.44,-0.87,-0.08,2.59
9.528,2.75,-0.67,0.32,2.85
9.538,3.14,-0.51,0.59,3.23
9.548,3.54,-0.19,0.69,3.61
9.558,3.96,0.33,0.64,4.03
9.568,4.15,0.66,0.41,4.22
9.578,3.88,0.51,-0.03,3.92
9.588,3.29,0.34,-0.50,3.35
9.598,2.71,0.35,-0.84,2.86
9.608,2.12,0.37,-1.11,2.42
9.618,1.41,0.36,-1.33,1.98
9.628,0.83,0.45,-1.57,1.83
9.638,0.48,0.68,-1.73,1.92
9.648,0.28,1.00,-1.88,2.15
9.658,0.35,1.39,-2.00,2.47
9.668,0.50,1.75,-2.01,2.71
9.678,0.69,1.85,-1.93,2.76
9.688,0.70,1.73,-1.82,2.61
9.698,0.43,1.46,-1.69,2.27
9.708,-0.14,1.13,-1.53,1.91
9.718,-0.79,0.83,-1.46,1.86
9.728,-1.38,0.59,-1.36,2.02
9.738,-1.74,0.50,-1.37,2.27
9.748,-1.89,0.52,-1.48,2.45
9.758,-1.89,0.69,-1.58,2.56
9.768,-1.82,0.93,-1.74,2.69
9.778,-1.66,1.12,-1.77,2.67
9.788,-1.56,1.21,-1.66,2.58
9.798,-1.47,1.22,-1.51,2.43
9.808,-1.31,1.14,-1.33,2.19
9.818,-1.21,0.98,-1.17,1.95
9.828,-1.28,0.74,-0.97,1.77
9.838,-1.47,0.45,-0.83,1.75
9.848,-1.70,0.14,-0.73,1.86
9.858,-1.98,-0.23,-0.59,2.08
9.868,-2.19,-0.53,-0.46,2.30
9.878,-2.27,-0.73,-0.36,2.41
9.888,-2.25,-0.76,-0.30,2.40
9.898,-2.14,-0.60,-0.34,2.25
9.908,-1.91,-0.33,-0.36,1.97
9.918,-1.67,-0.05,-0.33,1.70
9.928,-1.51,0.22,-0.34,1.56
9.938,-1.46,0.36,-0.35,1.55
9.948,-1.36,0.43,-0.36,1.47
9.958,-1.27,0.45,-0.47,1.43
9.968,-1.18,0.52,-0.46,1.36
9.978,-0.96,0.65,-0.26,1.19
9.988,-0.93,0.66,-0.24,1.16
9.998,-1.01,0.64,-0.19,1.21
10.008,-1.01,0.56,-0.09,1.15
10.018,-0.97,0.43,-0.06,1.07
10.028,-0.95,0.30,-0.04,1.00
10.038,-0.89,0.18,-0.08,0.91
10.048,-0.69,0.02,-0.17,0.71
10.058,-0.97,0.00,-0.14,0.98
10.068,-1.00,0.11,-0.06,1.01
10.078,-0.87,0.20,-0.04,0.89
10.088,-0.82,0.24,-0.08,0.86
10.098,-0.82,0.23,-0.05,0.85
10.108,-0.74,0.15,-0.00,0.75
10.118,-0.57,0.12,0.19,0.61
10.128,-0.47,0.13,0.35,0.60
10.138,-0.54,0.22,0.43,0.73
10.148,-0.66,0.23,0.56,0.89
10.158,-0.62,0.24,0.61,0.90
10.168,-0.51,0.22,0.56,0.79
10.178,-0.49,0.06,0.56,0.75
10.188,-0.53,-0.08,0.60,0.81
10.198,-0.52,-0.14,0.62,0.82
10.208,-0.41,-0.18,0.62,0.76
10.218,-0.24,-0.21,0.63,0.70
10.228,-0.27,-0.33,0.66,0.79
10.238,-0.43,-0.41,0.79,0.99
10.248,-0.58,-0.39,0.93,1.16
10.258,-0.68,-0.37,0.95,1.23
10.268,-0.71,-0.39,0.91,1.22
10.278,-0.62,-0.45,0.88,1.17
10.288,-0.43,-0.52,0.85,1.09
10.298,-0.22,-0.52,0.90,1.06
10.308,-0.01,-0.42,0.89,0.99
10.318,0.20,-0.32,0.88,0.96
10.328,0.31,-0.20,0.74,0.82
10.338,0.30,-0.02,0.67,0.73
10.348,0.21,0.08,0.96,0.98
10.358,0.18,0.01,0.90,0.92
10.368,0.39,-0.01,0.56,0.68
10.378,0.73,0.01,0.42,0.84
10.388,1.02,0.01,0.53,1.15
10.398,1.23,-0.02,0.48,1.32
10.408,1.40,0.12,-0.02,1.40
10.418,1.23,0.43,-0.01,1.30
10.428,0.91,0.67,0.18,1.15
10.438,0.75,0.93,0.30,1.23
10.448,0.66,1.13,0.30,1.34
10.458,0.89,1.39,0.31,1.68
10.468,1.60,1.74,0.27,2.38
10.478,2.26,1.88,0.27,2.95
10.488,2.72,1.74,0.23,3.24
10.498,3.12,1.62,0.13,3.52
10.508,3.41,1.53,0.05,3.74
10.518,3.50,1.42,-0.02,3.78
10.528,3.65,1.30,-0.05,3.87
10.538,3.62,1.17,0.03,3.80
10.548,3.25,1.05,-0.08,3.42
10.558,2.60,0.97,-0.37,2.80
10.568,1.76,0.80,-0.63,2.04
10.578,0.94,0.68,-1.05,1.56
10.588,0.21,0.71,-1.51,1.68
10.598,-0.39,0.78,-2.08,2.26
10.609,-0.74,0.84,-2.61,2.84
10.618,-0.81,0.95,-2.90,3.15
10.628,-0.55,0.98,-2.95,3.16
10.638,-0.13,0.96,-2.74,2.91
10.648,0.42,0.93,-2.48,2.68
10.659,0.74,0.79,-2.29,2.53
10.668,0.76,0.54,-2.14,2.33
10.679,0.52,0.29,-2.11,2.19
10.688,0.18,0.10,-1.93,1.94
10.699,-0.16,-0.06,-1.71,1.72
10.708,-0.37,-0.17,-1.56,1.61
10.718,-0.52,-0.27,-1.48,1.59
10.729,-0.61,-0.31,-1.37,1.53
10.739,-0.65,-0.27,-1.25,1.43
10.749,-0.70,-0.21,-1.09,1.31
10.759,-0.81,-0.05,-0.96,1.25
10.769,-0.95,0.09,-0.90,1.31
10.779,-1.14,0.20,-0.89,1.46
10.789,-1.37,0.25,-0.93,1.68
10.799,-1.53,0.28,-0.94,1.82
10.809,-1.64,0.26,-0.85,1.87
10.819,-1.74,0.12,-0.87,1.95
10.829,-1.80,0.00,-0.88,2.01
10.839,-1.84,-0.09,-0.92,2.06
10.849,-1.93,-0.14,-0.97,2.16
10.859,-2.03,-0.11,-1.06,2.29
10.869,-2.05,0.01,-1.06,2.31
10.879,-2.03,0.13,-1.05,2.29
10.889,-2.00,0.18,-1.04,2.26
10.899,-1.94,0.17,-1.04,2.21
10.909,-1.90,0.14,-0.97,2.14
10.919,-1.80,0.09,-0.91,2.02
10.929,-1.66,-0.04,-0.87,1.87
10.939,-1.54,-0.20,-0.87,1.78
10.949,-1.48,-0.28,-0.88,1.74
10.959,-1.34,-0.33,-0.70,1.55
10.969,-1.12,-0.41,-0.59,1.33
10.979,-0.88,-0.45,-0.39,1.06
10.989,-0.63,-0.48,-0.32,0.86
10.999,-0.49,-0.42,-0.25,0.69
11.009,-0.37,-0.31,-0.21,0.53
11.019,-0.37,-0.25,-0.16,0.47
11.029,-0.42,-0.22,-0.06,0.48
11.039,-0.49,-0.25,-0.03,0.55
11.049,-0.64,-0.29,-0.11,0.71
11.059,-0.70,-0.30,-0.16,0.78
11.069,-0.60,-0.31,-0.22,0.71
11.079,-0.43,-0.31,-0.24,0.58
11.089,-0.16,-0.40,-0.18,0.46
11.099,0.08,-0.54,-0.16,0.57
11.109,0.21,-0.68,-0.15,0.73
11.119,0.23,-0.74,-0.12,0.79
11.129,0.18,-0.68,-0.10,0.71
11.139,0.02,-0.56,-0.11,0.57
11.149,-0.11,-0.47,-0.12,0.50
11.159,-0.13,-0.39,-0.05,0.41
11.169,-0.18,-0.36,-0.01,0.40
11.179,-0.21,-0.36,0.07,0.42
11.189,-0.08,-0.45,0.13,0.48
11.199,0.03,-0.55,0.14,0.57
11.209,0.06,-0.64,0.24,0.69
11.219,0.06,-0.65,0.33,0.73
11.229,-0.00,-0.54,0.44,0.69
11.239,-0.09,-0.40,0.44,0.60
11.249,-0.22,-0.30,0.18,0.41
11.259,-0.26,-0.18,-0.15,0.35
11.269,-0.10,-0.08,-0.37,0.39
11.279,0.25,-0.10,-0.47,0.54
11.289,0.74,-0.12,-0.48,0.89
11.299,1.19,-0.03,-0.38,1.25
11.309,1.42,0.07,-0.34,1.46
11.319,1.51,0.10,-0.35,1.56
11.329,1.59,0.13,-0.37,1.63
11.339,1.70,0.14,-0.39,1.75
11.349,2.03,0.12,-0.32,2.06
11.359,2.45,0.01,-0.19,2.46
11.369,2.79,-0.21,-0.15,2.80
11.379,2.97,-0.47,-0.02,3.01
11.389,3.06,-0.73,0.09,3.15
11.399,3.02,-0.92,0.22,3.17
11.409,2.92,-1.01,0.28,3.10
11.419,2.79,-0.89,0.34,2.94
11.429,2.73,-0.60,0.29,2.81
11.439,2.82,-0.19,0.16,2.83
11.449,2.77,0.20,-0.07,2.78
11.459,2.60,0.50,-0.41,2.68
11.469,2.45,0.71,-0.77,2.67
11.479,2.40,0.92,-1.05,2.77
11.489,2.16,1.09,-1.26,2.73
11.499,1.68,1.10,-1.35,2.42
11.509,1.14,1.03,-1.40,2.08
11.519,0.69,0.96,-1.54,1.94
11.529,0.31,1.02,-1.71,2.01
11.539,-0.08,1.25,-1.82,2.21
11.549,-0.49,1.48,-1.79,2.38
11.559,-0.79,1.74,-1.70,2.56
11.569,-1.05,2.00,-1.53,2.72
11.579,-1.18,2.12,-1.34,2.78
11.589,-1.18,2.06,-1.21,2.66
11.599,-1.10,1.76,-1.15,2.37
11.609,-1.02,1.29,-1.16,2.01
11.619,-0.92,0.75,-1.10,1.61
11.629,-0.98,0.24,-1.01,1.43
11.639,-0.98,-0.18,-1.05,1.45
11.649,-0.99,-0.40,-1.16,1.58
11.659,-1.22,-0.39,-1.26,1.80
11.669,-1.60,-0.21,-1.27,2.05
11.679,-2.04,0.09,-1.25,2.40
11.689,-2.39,0.42,-1.19,2.70
11.699,-2.57,0.61,-1.14,2.88
11.709,-2.60,0.74,-1.11,2.92
11.719,-2.41,0.81,-0.98,2.73
11.729,-2.08,0.81,-0.96,2.43
11.739,-1.76,0.69,-1.06,2.16
11.749,-1.42,0.55,-1.15,1.91
11.759,-1.11,0.48,-1.08,1.63
11.769,-0.96,0.46,-0.95,1.43
11.779,-1.09,0.36,-0.77,1.38
11.789,-1.22,0.18,-0.74,1.44
11.799,-1.21,0.05,-0.80,1.45
11.809,-1.25,0.09,-0.77,1.47
11.819,-1.50,0.39,-0.52,1.64
11.829,-1.80,0.69,-0.25,1.94
11.839,-1.94,0.80,-0.05,2.10
11.849,-1.90,0.71,0.04,2.03
11.859,-1.68,0.50,0.12,1.76
11.869,-1.38,0.29,0.14,1.42
11.879,-1.12,0.09,0.12,1.13
11.889,-1.05,-0.05,0.11,1.06
11.899,-1.20,-0.09,0.08,1.21
11.909,-1.38,-0.01,0.04,1.38
11.919,-1.41,0.12,-0.01,1.42
11.929,-1.29,0.32,0.00,1.32
11.940,-1.08,0.50,0.02,1.19
11.949,-0.83,0.63,-0.04,1.04
11.960,-0.64,0.73,-0.06,0.97
11.970,-0.60,0.86,0.02,1.05
11.980,-0.67,1.01,0.13,1.22
11.990,-0.79,1.04,0.25,1.33
12.000,-0.95,0.94,0.29,1.37
12.010,-1.05,0.77,0.33,1.35
12.020,-1.05,0.55,0.36,1.24
12.030,-0.91,0.33,0.45,1.07
12.040,-0.69,0.16,0.54,0.89
12.050,-0.39,-0.03,0.68,0.79
12.060,-0.08,-0.18,0.85,0.87
12.070,0.18,-0.23,0.97,1.01
12.080,0.21,-0.25,0.95,1.00
12.090,0.02,-0.24,0.80,0.84
12.100,0.10,-0.06,0.74,0.75
12.110,0.22,0.14,0.78,0.82
12.120,0.19,0.30,0.67,0.76
12.130,0.09,0.52,0.31,0.61
12.140,-0.19,0.72,0.41,0.85
12.150,-0.45,0.65,0.79,1.12
12.160,-0.16,0.44,0.74,0.87
12.170,0.73,0.28,0.49,0.93
12.180,1.92,0.19,0.11,1.94
12.190,3.21,0.42,-0.10,3.23
12.200,3.91,0.92,-0.44,4.04
12.210,3.59,1.17,-0.21,3.78
12.220,2.97,1.32,0.36,3.27
12.230,3.14,1.72,0.93,3.70
12.240,3.28,1.91,0.69,3.86
12.250,3.73,1.83,0.21,4.16
12.260,3.86,1.81,0.24,4.27
12.270,3.09,1.59,-0.15,3.48
12.280,2.12,1.46,-0.48,2.62
12.290,1.36,1.35,-0.39,1.96
12.300,0.91,1.19,-0.44,1.56
12.310,0.58,0.96,-0.80,1.38
12.320,0.46,0.80,-1.16,1.48
12.330,0.32,0.54,-1.52,1.64
12.340,0.12,0.26,-1.86,1.88
12.350,-0.19,0.15,-2.09,2.11
12.360,-0.40,0.22,-2.15,2.20
12.370,-0.33,0.33,-2.02,2.08
12.380,-0.06,0.44,-1.94,1.99
12.390,0.24,0.51,-1.89,1.97
12.400,0.32,0.58,-1.86,1.97
12.410,0.04,0.66,-1.79,1.90
12.420,-0.34,0.72,-1.66,1.84
12.430,-0.75,0.69,-1.62,1.92
12.440,-1.09,0.63,-1.58,2.02
12.450,-1.27,0.46,-1.50,2.01
12.460,-1.31,0.21,-1.38,1.92
12.470,-1.27,-0.09,-1.30,1.82
12.480,-1.28,-0.28,-1.23,1.80
12.490,-1.31,-0.30,-1.15,1.77
12.500,-1.37,-0.24,-1.10,1.77
12.510,-1.47,-0.05,-1.11,1.85
12.520,-1.58,0.07,-1.06,1.90
12.530,-1.59,0.10,-1.05,1.91
12.540,-1.64,0.13,-1.12,1.99
12.550,-1.76,0.14,-1.10,2.09
12.560,-1.82,0.09,-1.11,2.13
12.570,-1.81,0.07,-1.12,2.13
12.580,-1.79,-0.03,-0.99,2.05
12.590,-1.75,-0.18,-0.88,1.96
12.600,-1.64,-0.32,-0.78,1.84
12.610,-1.60,-0.35,-0.67,1.77
12.620,-1.57,-0.36,-0.71,1.76
12.630,-1.51,-0.33,-0.78,1.73
12.640,-1.45,-0.29,-0.81,1.69
12.650,-1.34,-0.25,-0.80,1.58
12.660,-1.14,-0.25,-0.78,1.40
12.670,-0.98,-0.31,-0.75,1.28
12.680,-0.82,-0.30,-0.67,1.10
12.690,-0.73,-0.25,-0.57,0.96
12.700,-0.64,-0.20,-0.46,0.81
12.710,-0.56,-0.15,-0.36,0.68
12.720,-0.51,-0.15,-0.28,0.60
12.730,-0.49,-0.25,-0.24,0.60
12.740,-0.47,-0.33,-0.30,0.65
12.750,-0.44,-0.36,-0.32,0.65
12.760,-0.34,-0.36,-0.28,0.57
12.770,-0.33,-0.34,-0.34,0.59
12.780,-0.40,-0.26,-0.38,0.61
12.790,-0.45,-0.17,-0.35,0.60
12.800,-0.53,-0.06,-0.34,0.63
12.810,-0.64,-0.06,-0.31,0.72
12.820,-0.67,-0.11,-0.23,0.72
12.830,-0.62,-0.27,-0.22,0.71
12.840,-0.49,-0.40,-0.19,0.66
12.850,-0.35,-0.55,-0.25,0.70
12.860,-0.26,-0.67,-0.37,0.80
12.870,-0.18,-0.67,-0.42,0.81
12.880,-0.08,-0.58,-0.39,0.70
12.890,0.10,-0.32,-0.18,0.38
12.900,0.11,-0.03,0.09,0.15
12.910,0.03,0.12,0.26,0.29
12.920,-0.07,0.04,0.43,0.44
12.930,-0.14,-0.34,0.48,0.60
12.940,-0.05,-0.85,0.42,0.95
12.950,0.12,-1.29,0.42,1.36
12.960,0.38,-1.56,0.51,1.69
12.970,0.73,-1.68,0.76,1.98
12.980,0.97,-1.57,0.99,2.09
12.990,1.06,-1.21,0.94,1.87
13.000,1.13,-0.74,0.77,1.56
13.010,1.29,-0.38,0.48,1.43
13.020,1.60,-0.10,0.25,1.62
13.030,2.07,0.11,0.03,2.07
13.040,2.67,0.31,0.00,2.69
13.050,3.09,0.31,0.13,3.11
13.060,3.53,-0.03,0.20,3.53
13.070,4.11,-0.56,0.08,4.14
13.080,4.68,-0.96,-0.26,4.78
13.090,5.27,-1.03,-0.58,5.40
13.100,5.47,-0.58,-0.96,5.58
13.110,5.01,0.11,-1.23,5.16
13.120,4.28,0.75,-1.46,4.58
13.130,3.85,1.26,-1.76,4.42
13.141,3.52,1.75,-2.05,4.43
13.150,2.65,2.12,-2.18,4.03
13.160,1.55,2.19,-2.13,3.43
13.171,0.57,1.99,-1.93,2.83
13.180,-0.12,1.54,-1.67,2.27
13.190,-0.42,0.96,-1.48,1.82
13.200,-0.55,0.52,-1.65,1.82
13.211,-0.52,0.44,-1.80,1.93
13.220,-0.35,0.69,-1.91,2.06
13.230,-0.16,1.18,-1.82,2.18
13.241,-0.08,1.84,-1.59,2.43
13.251,-0.11,2.40,-1.39,2.77
13.261,-0.13,2.73,-1.12,2.95
13.271,-0.27,2.64,-0.81,2.78
13.280,-0.36,2.06,-0.67,2.19
13.291,-0.42,1.12,-0.73,1.40
13.301,-0.63,0.14,-0.77,1.00
13.311,-1.05,-0.59,-0.77,1.43
13.321,-1.59,-1.03,-0.69,2.01
13.331,-2.29,-1.21,-0.65,2.67
13.341,-2.89,-1.21,-0.64,3.20
13.351,-3.51,-1.12,-0.69,3.75
13.361,-4.00,-0.98,-0.68,4.18
13.371,-4.39,-0.76,-0.75,4.51
13.381,-4.53,-0.41,-0.76,4.61
13.391,-4.42,0.05,-0.64,4.47
13.401,-4.27,0.45,-0.48,4.32
13.411,-4.07,0.65,-0.51,4.15
13.421,-3.77,0.69,-0.59,3.88
13.431,-3.40,0.62,-0.53,3.50
13.441,-3.02,0.46,-0.55,3.10
13.451,-2.62,0.30,-0.58,2.70
13.461,-2.20,0.09,-0.59,2.28
13.471,-1.73,-0.09,-0.48,1.80
13.481,-1.21,-0.12,-0.41,1.28
13.491,-0.67,-0.00,-0.32,0.74
13.501,-0.29,0.20,-0.23,0.42
13.511,-0.05,0.42,-0.17,0.45
13.521,0.06,0.63,-0.12,0.64
13.531,0.08,0.75,-0.08,0.76
13.541,0.03,0.85,-0.05,0.85
13.551,0.04,0.93,-0.03,0.93
13.561,-0.04,0.94,-0.03,0.95
13.571,-0.28,0.89,0.08,0.94
13.581,-0.47,0.82,0.22,0.97
13.591,-0.56,0.69,0.32,0.94
13.601,-0.66,0.52,0.40,0.94
13.611,-0.76,0.38,0.39,0.93
13.621,-0.88,0.24,0.42,1.01
13.631,-0.99,0.15,0.40,1.08
13.641,-0.94,0.06,0.39,1.02
13.651,-0.75,-0.02,0.37,0.84
13.661,-0.46,-0.08,0.38,0.61
13.671,-0.16,-0.05,0.39,0.43
13.681,-0.06,0.03,0.44,0.44
13.691,-0.27,0.22,0.64,0.72
13.701,-0.59,0.53,0.78,1.11
13.711,-0.83,0.88,0.87,1.49
13.721,-0.88,1.10,0.94,1.70
13.731,-0.62,1.17,0.89,1.59
13.741,-0.04,1.01,0.75,1.25
13.751,0.67,0.71,0.66,1.18
13.761,1.30,0.41,0.70,1.53
13.771,1.62,0.26,0.75,1.80
13.781,1.63,0.21,0.85,1.85
13.791,1.51,0.18,0.91,1.77
13.801,1.35,0.26,0.93,1.66
13.811,1.08,0.34,1.16,1.62
13.821,0.73,0.29,1.16,1.41
13.831,0.74,0.19,0.83,1.13
13.841,1.46,0.28,0.40,1.54
13.851,2.48,0.48,0.26,2.54
13.861,3.78,0.66,0.24,3.84
13.871,4.87,0.87,0.10,4.94
13.881,4.96,1.00,0.01,5.06
13.891,4.17,1.16,0.06,4.33
13.901,2.88,1.41,0.02,3.21
13.911,1.72,1.50,0.13,2.29
13.921,0.85,1.28,0.11,1.54
13.931,0.46,1.07,-0.04,1.16
13.941,0.42,1.01,-0.08,1.10
13.951,0.24,0.92,-0.36,1.02
13.961,-0.04,0.77,-0.77,1.09
13.971,-0.36,0.66,-1.14,1.36
13.981,-0.64,0.53,-1.48,1.69
13.991,-0.70,0.52,-1.78,1.98
14.001,-0.49,0.62,-2.04,2.19
14.011,-0.19,0.65,-2.17,2.27
14.021,0.08,0.49,-2.25,2.30
14.031,0.33,0.16,-2.30,2.33
14.041,0.56,-0.12,-2.39,2.45
14.051,0.51,-0.25,-2.44,2.50
14.061,0.29,-0.11,-2.44,2.46
14.071,-0.03,0.24,-2.34,2.35
14.081,-0.31,0.63,-2.12,2.24
14.091,-0.46,0.93,-1.96,2.22
14.101,-0.63,0.90,-1.84,2.14
14.111,-0.57,0.59,-1.74,1.92
14.121,-0.46,0.28,-1.64,1.72
14.131,-0.51,0.13,-1.57,1.65
14.141,-0.62,0.05,-1.38,1.51
14.151,-0.75,-0.03,-1.30,1.50
14.161,-0.86,-0.00,-1.18,1.46
14.171,-0.99,0.07,-1.05,1.45
14.181,-1.14,0.18,-0.94,1.49
14.191,-1.39,0.30,-0.90,1.68
14.201,-1.69,0.43,-0.95,1.99
14.211,-2.06,0.51,-1.00,2.35
14.221,-2.38,0.55,-1.10,2.68
14.231,-2.50,0.52,-1.23,2.83
14.241,-2.42,0.40,-1.27,2.76
14.251,-2.25,0.21,-1.33,2.63
14.261,-2.06,0.03,-1.30,2.44
14.271,-1.87,-0.14,-1.20,2.22
14.281,-1.62,-0.32,-1.00,1.93
14.291,-1.36,-0.50,-0.96,1.73
14.301,-1.29,-0.55,-0.90,1.67
14.311,-1.34,-0.52,-0.91,1.70
14.321,-1.36,-0.43,-0.97,1.73
14.331,-1.29,-0.32,-0.96,1.64
14.341,-1.12,-0.21,-0.90,1.46
14.351,-0.91,-0.13,-0.90,1.28
14.361,-0.65,-0.07,-0.83,1.06
14.371,-0.47,-0.02,-0.77,0.90
14.382,-0.38,0.00,-0.66,0.77
14.391,-0.34,-0.02,-0.53,0.63
14.402,-0.27,-0.06,-0.39,0.48
14.412,-0.27,-0.15,-0.22,0.38
14.421,-0.38,-0.33,-0.13,0.52
14.431,-0.44,-0.48,-0.05,0.66
14.441,-0.48,-0.59,-0.04,0.76
14.452,-0.44,-0.62,0.08,0.76
14.462,-0.34,-0.66,0.20,0.77
14.472,-0.21,-0.63,0.27,0.71
14.482,-0.18,-0.60,0.27,0.68
14.491,-0.22,-0.55,0.33,0.68
14.502,-0.38,-0.58,0.32,0.77
14.512,-0.49,-0.66,0.19,0.84
14.522,-0.41,-0.74,0.05,0.85
14.531,-0.29,-0.80,-0.07,0.86
14.542,-0.16,-0.78,-0.23,0.82
14.552,-0.05,-0.58,-0.33,0.67
14.562,0.04,-0.32,-0.44,0.55
14.572,0.08,-0.07,-0.46,0.47
14.582,0.06,0.08,-0.43,0.44
14.592,0.11,0.11,-0.39,0.42
14.602,0.10,-0.02,-0.30,0.32
14.612,0.12,-0.19,-0.19,0.29
14.622,0.16,-0.40,-0.06,0.43
14.632,0.17,-0.54,0.14,0.58
14.642,0.22,-0.62,0.40,0.77
14.652,0.23,-0.70,0.55,0.92
14.662,0.20,-0.66,0.49,0.85
14.672,0.28,-0.54,0.30,0.68
14.682,0.41,-0.32,0.21,0.56
14.692,0.63,-0.18,0.26,0.71
14.702,0.99,-0.14,0.37,1.07
14.712,1.47,-0.15,0.58,1.59
14.722,2.05,-0.37,0.74,2.21
14.732,2.60,-0.75,0.71,2.79
14.742,3.24,-1.04,0.63,3.46
14.752,4.01,-0.96,0.69,4.19
14.762,4.74,-0.67,0.65,4.83
14.772,5.01,-0.30,0.47,5.04
14.782,4.96,0.11,0.11,4.96
14.792,5.00,0.80,-0.36,5.08
14.802,5.05,1.65,-0.82,5.37
14.812,4.68,2.30,-1.24,5.36
14.822,3.78,2.51,-1.65,4.82
14.832,2.68,2.24,-1.95,4.00
14.842,1.51,1.68,-2.01,3.03
14.852,0.48,1.02,-1.77,2.10
14.862,-0.16,0.15,-1.50,1.52
14.872,-0.45,-0.70,-1.47,1.69
14.882,-0.49,-1.13,-1.38,1.86
14.892,-0.53,-1.01,-1.34,1.76
14.902,-0.65,-0.47,-1.42,1.63
14.912,-0.75,0.28,-1.45,1.66
14.922,-1.03,1.02,-1.53,2.11
14.932,-1.33,1.62,-1.52,2.59
14.942,-1.42,1.98,-1.37,2.80
14.952,-1.63,2.07,-1.30,2.94
14.962,-1.70,1.90,-1.37,2.89
14.972,-1.56,1.47,-1.42,2.57
14.982,-1.40,0.90,-1.37,2.15
14.992,-1.30,0.32,-1.31,1.87
15.002,-1.23,-0.07,-1.34,1.82
15.012,-1.30,-0.26,-1.30,1.85
15.022,-1.58,-0.29,-1.28,2.06
15.032,-1.85,-0.20,-1.27,2.25
15.042,-2.01,-0.08,-1.26,2.37
15.052,-2.09,0.02,-1.22,2.42
15.062,-2.12,0.11,-1.17,2.42
15.072,-2.13,0.19,-1.06,2.39
15.082,-2.21,0.30,-0.98,2.43
15.092,-2.30,0.45,-0.91,2.52
15.102,-2.29,0.55,-0.83,2.49
15.112,-2.18,0.50,-0.70,2.34
15.122,-2.02,0.45,-0.61,2.16
15.132,-1.94,0.37,-0.58,2.06
15.142,-1.89,0.32,-0.54,1.99
15.152,-1.68,0.26,-0.45,1.76
15.162,-1.51,0.20,-0.39,1.57
15.172,-1.45,0.14,-0.45,1.52
15.182,-1.44,0.10,-0.39,1.50
15.192,-1.38,0.15,-0.36,1.44
15.202,-1.21,0.24,-0.27,1.27
15.212,-1.00,0.35,-0.24,1.09
15.222,-0.76,0.43,-0.33,0.93
15.232,-0.55,0.47,-0.36,0.80
15.242,-0.53,0.44,-0.32,0.76
15.252,-0.63,0.40,-0.20,0.77
15.262,-0.83,0.40,0.01,0.92
15.272,-0.87,0.43,0.10,0.98
15.282,-0.94,0.14,0.07,0.96
15.292,-0.97,0.32,0.06,1.02
15.302,-0.95,0.44,0.08,1.05
15.312,-0.74,0.46,0.09,0.88
15.322,-0.68,0.46,0.10,0.83
15.332,-0.84,0.46,0.15,0.97
15.342,-0.82,0.47,0.28,0.99
15.352,-0.71,0.38,0.36,0.89
15.362,-0.58,0.33,0.39,0.77
15.372,-0.59,0.31,0.42,0.78
15.382,-0.51,0.26,0.44,0.72
15.392,-0.36,0.17,0.42,0.58
15.402,-0.26,0.10,0.45,0.53
15.412,-0.11,-0.05,0.51,0.52
15.422,-0.01,-0.18,0.57,0.59
15.432,0.09,-0.23,0.69,0.73
15.442,0.18,-0.26,0.77,0.83
15.452,0.27,-0.20,0.86,0.92
15.462,0.37,-0.11,0.95,1.02
15.472,0.42,-0.13,1.01,1.10
15.482,0.52,-0.19,0.93,1.08
15.492,0.64,-0.19,0.60,0.90
15.502,0.55,-0.12,0.63,0.84
15.512,0.17,-0.16,0.99,1.02
15.522,-0.05,-0.23,0.82,0.85
15.532,0.18,-0.09,0.43,0.48
15.542,0.78,0.12,0.22,0.82
15.552,1.87,0.50,0.03,1.94
15.562,3.08,1.05,-0.30,3.27
15.572,3.75,1.52,-0.18,4.05
15.582,3.77,1.71,0.26,4.15
15.592,3.64,1.80,0.58,4.11
15.602,3.55,1.92,0.76,4.10
15.612,3.30,1.89,0.70,3.87
15.622,3.25,1.77,0.78,3.78
15.632,3.10,1.52,0.62,3.51
15.642,3.00,1.22,0.34,3.25
15.652,2.84,1.03,0.03,3.02
15.662,2.62,0.90,-0.15,2.77
15.672,2.27,0.80,-0.44,2.45
15.682,1.74,0.82,-0.84,2.09
15.692,0.85,0.78,-1.23,1.69
15.702,-0.23,0.70,-1.60,1.76
15.712,-0.99,0.64,-1.85,2.20
15.723,-1.17,0.53,-2.09,2.45
15.733,-0.92,0.34,-2.26,2.46
15.743,-0.30,0.22,-2.35,2.38
15.753,0.47,0.17,-2.46,2.51
15.763,1.05,0.20,-2.43,2.65
15.773,1.28,0.34,-2.35,2.70
15.783,1.09,0.63,-2.19,2.53
15.793,0.66,0.86,-1.99,2.27
15.803,0.08,0.90,-1.78,1.99
15.813,-0.40,0.79,-1.68,1.90
15.823,-0.77,0.52,-1.74,1.97
15.833,-0.96,0.25,-1.74,2.00
15.843,-1.02,0.01,-1.71,1.99
15.853,-1.08,-0.15,-1.70,2.02
15.863,-1.35,-0.30,-1.63,2.14
15.873,-1.74,-0.34,-1.58,2.37
15.883,-2.08,-0.31,-1.51,2.59
15.893,-2.38,-0.28,-1.38,2.77
15.903,-2.47,-0.25,-1.30,2.81
15.913,-2.57,-0.17,-1.28,2.87
15.923,-2.66,-0.04,-1.31,2.97
15.933,-2.74,0.13,-1.33,3.05
15.943,-2.73,0.34,-1.38,3.08
15.953,-2.68,0.52,-1.38,3.06
15.963,-2.67,0.59,-1.36,3.05
15.973,-2.57,0.55,-1.28,2.93
15.983,-2.50,0.36,-1.21,2.80
15.993,-2.45,0.12,-1.08,2.68
16.003,-2.30,-0.20,-0.88,2.47
16.013,-2.10,-0.56,-0.76,2.30
16.023,-1.82,-0.77,-0.78,2.13
16.033,-1.54,-0.80,-0.68,1.87
16.043,-1.20,-0.73,-0.61,1.54
16.053,-0.91,-0.64,-0.56,1.25
16.063,-0.70,-0.56,-0.59,1.07
16.073,-0.46,-0.50,-0.60,0.91
16.083,-0.22,-0.47,-0.61,0.80
16.093,0.05,-0.43,-0.61,0.75
16.103,0.27,-0.43,-0.54,0.74
16.113,0.36,-0.45,-0.40,0.70
16.123,0.31,-0.46,-0.29,0.62
16.133,0.18,-0.40,-0.16,0.46
16.143,-0.02,-0.31,-0.15,0.34
16.153,-0.25,-0.21,-0.10,0.34
16.163,-0.50,-0.19,-0.03,0.53
16.173,-0.67,-0.18,-0.03,0.69
16.183,-0.69,-0.23,-0.03,0.72
16.193,-0.70,-0.32,-0.05,0.77
16.203,-0.62,-0.45,-0.07,0.77
16.213,-0.50,-0.55,-0.13,0.75
16.223,-0.37,-0.64,-0.18,0.76
16.233,-0.34,-0.75,-0.19,0.85
16.243,-0.27,-0.81,-0.20,0.88
16.253,-0.30,-0.81,-0.22,0.89
16.263,-0.34,-0.78,-0.26,0.89
16.273,-0.35,-0.67,-0.27,0.80
16.283,-0.31,-0.59,-0.25,0.71
16.293,-0.19,-0.49,-0.25,0.58
16.303,-0.02,-0.39,-0.18,0.43
16.313,0.17,-0.40,-0.10,0.44
16.323,0.26,-0.44,-0.02,0.51
16.333,0.20,-0.51,0.11,0.56
16.343,0.06,-0.61,0.23,0.66
16.353,-0.14,-0.78,0.31,0.85
16.363,-0.26,-0.97,0.33,1.05
16.373,-0.27,-1.13,0.35,1.21
16.383,-0.16,-1.17,0.37,1.23
16.393,-0.00,-1.10,0.39,1.17
16.403,0.23,-0.91,0.39,1.02
16.413,0.43,-0.67,0.35,0.87
16.423,0.56,-0.47,0.34,0.81
16.433,0.70,-0.25,0.37,0.83
16.443,0.77,-0.03,0.35,0.84
16.453,0.96,0.12,0.21,0.99
16.463,1.24,0.12,-0.03,1.24
16.473,1.51,0.03,-0.19,1.52
16.483,1.85,-0.20,-0.35,1.90
16.493,2.25,-0.52,-0.50,2.37
16.503,2.78,-0.79,-0.48,2.93
16.513,3.44,-0.93,-0.28,3.57
16.523,4.15,-0.93,-0.14,4.25
16.533,4.98,-0.74,-0.21,5.04
16.543,5.78,0.00,-0.25,5.79
16.553,6.03,1.03,-0.29,6.12
16.563,5.63,1.88,-0.52,5.96
16.573,4.76,2.28,-1.00,5.37
16.583,3.73,2.24,-1.44,4.59
16.593,2.75,2.00,-1.74,3.82
16.603,1.45,1.75,-1.79,2.89
16.613,0.09,1.39,-1.75,2.24
16.623,-0.76,0.98,-1.87,2.24
16.633,-1.04,0.79,-2.02,2.40
16.643,-1.11,0.99,-1.94,2.45
16.653,-1.10,1.36,-1.92,2.60
16.663,-0.99,1.78,-1.86,2.76
16.673,-0.94,2.13,-1.77,2.92
16.683,-0.85,2.35,-1.52,2.92
16.693,-0.86,2.28,-1.27,2.75
16.703,-0.93,2.01,-1.13,2.49
16.713,-1.18,1.67,-0.97,2.26
16.723,-1.34,1.29,-0.78,2.01
16.733,-1.42,0.78,-0.75,1.79
16.743,-1.42,0.36,-0.81,1.67
16.753,-1.32,0.15,-0.82,1.56
16.763,-1.25,0.14,-0.77,1.47
16.773,-1.18,0.25,-0.75,1.42
16.783,-1.20,0.39,-0.66,1.42
16.793,-1.16,0.48,-0.66,1.41
16.803,-1.15,0.52,-0.66,1.42
16.813,-1.27,0.48,-0.59,1.48
16.823,-1.49,0.43,-0.48,1.63
16.833,-1.69,0.33,-0.46,1.79
16.843,-1.73,0.27,-0.47,1.81
16.853,-1.71,0.21,-0.43,1.78
16.863,-1.85,0.16,-0.47,1.91
16.873,-2.01,0.13,-0.43,2.06
16.883,-2.09,0.19,-0.25,2.11
16.893,-2.10,0.26,-0.11,2.12
16.903,-2.00,0.31,-0.02,2.02
16.913,-1.81,0.32,-0.01,1.83
16.923,-1.61,0.27,-0.03,1.63
16.933,-1.48,0.22,-0.00,1.50
16.944,-1.39,0.12,0.09,1.40
16.953,-1.36,0.03,0.08,1.36
16.963,-1.09,0.05,0.19,1.11
16.974,-1.13,0.00,0.24,1.16
16.984,-1.08,0.20,0.32,1.14
16.993,-0.82,0.37,0.22,0.93
17.004,-0.41,0.42,-0.03,0.59
17.013,-0.24,0.41,-0.15,0.50
17.023,-0.42,0.48,-0.06,0.64
17.034,-0.63,0.55,0.09,0.84
17.043,-0.75,0.57,0.20,0.96
17.054,-0.87,0.55,0.26,1.06
17.063,-1.04,0.55,0.28,1.21
17.074,-1.04,0.55,0.28,1.21
17.084,-0.97,0.57,0.18,1.14
17.094,-0.96,0.55,0.09,1.11
17.104,-0.95,0.52,0.14,1.09
17.114,-0.84,0.37,0.19,0.94
17.124,-0.53,0.42,0.27,0.73
17.134,-0.37,0.35,0.40,0.65
17.144,-0.30,0.20,0.48,0.60
17.154,-0.34,0.05,0.59,0.68
17.164,-0.40,0.15,0.64,0.77
17.174,-0.56,0.22,0.73,0.95
17.184,-0.74,0.19,0.79,1.10
17.194,-0.74,0.06,0.82,1.10
17.204,-0.50,0.01,0.86,1.00
17.214,-0.08,0.05,0.92,0.92
17.224,0.26,0.12,0.96,1.00
17.234,0.55,0.27,1.08,1.25
17.244,0.72,0.36,1.37,1.59
17.254,0.71,0.29,1.45,1.64
17.264,0.88,0.19,0.69,1.13
17.274,1.44,0.49,0.22,1.53
17.284,2.56,1.00,0.18,2.76
17.294,4.10,1.64,0.14,4.42
17.304,4.99,2.08,0.24,5.41
17.314,5.02,2.26,0.75,5.56
17.324,4.02,1.93,0.91,4.55
17.334,3.02,1.28,0.35,3.29
17.344,2.78,0.88,-0.01,2.92
17.354,2.59,0.61,-0.11,2.66
17.364,2.55,0.68,-0.26,2.65
17.374,2.44,1.08,-0.62,2.74
17.384,2.28,1.57,-0.96,2.93
17.394,2.24,1.86,-1.08,3.10
17.404,1.90,1.70,-1.37,2.89
17.414,1.43,1.27,-1.69,2.55
17.424,0.87,0.88,-1.88,2.25
17.434,0.11,0.67,-1.86,1.98
17.444,-0.67,0.56,-1.79,1.99
17.454,-1.16,0.54,-1.78,2.19
17.464,-1.27,0.59,-1.81,2.29
17.474,-1.07,0.67,-1.81,2.21
17.484,-0.77,0.75,-1.83,2.12
17.494,-0.58,0.79,-1.81,2.06
17.504,-0.42,0.77,-1.70,1.92
17.514,-0.33,0.59,-1.56,1.70
17.524,-0.47,0.38,-1.44,1.56
17.534,-0.71,0.14,-1.31,1.50
17.544,-1.00,-0.13,-1.27,1.62
17.554,-1.20,-0.40,-1.28,1.80
17.564,-1.29,-0.52,-1.22,1.85
17.574,-1.43,-0.54,-1.15,1.91
17.584,-1.64,-0.42,-1.10,2.02
17.594,-1.90,-0.31,-1.08,2.21
17.604,-2.12,-0.17,-1.07,2.38
17.614,-2.32,0.00,-1.10,2.57
17.624,-2.49,0.23,-1.14,2.75
17.634,-2.60,0.44,-1.14,2.87
17.644,-2.66,0.65,-1.12,2.96
17.654,-2.64,0.77,-1.11,2.96
17.664,-2.52,0.72,-1.03,2.82
17.674,-2.38,0.53,-1.06,2.66
17.684,-2.33,0.33,-1.08,2.59
17.694,-2.30,0.17,-1.06,2.54
17.704,-2.22,-0.03,-1.00,2.43
17.714,-2.07,-0.21,-0.98,2.30
17.724,-1.89,-0.35,-0.94,2.15
17.734,-1.70,-0.35,-0.86,1.93
17.744,-1.50,-0.34,-0.84,1.75
17.754,-1.39,-0.34,-0.81,1.65
17.764,-1.23,-0.33,-0.78,1.49
17.774,-1.06,-0.33,-0.81,1.37
17.784,-0.87,-0.34,-0.82,1.24
17.794,-0.62,-0.39,-0.81,1.09
17.804,-0.32,-0.46,-0.84,1.01
17.814,-0.13,-0.44,-0.86,0.97
17.824,0.01,-0.34,-0.71,0.79
17.834,0.02,-0.26,-0.60,0.65
17.844,0.03,-0.15,-0.55,0.58
17.854,-0.03,-0.06,-0.55,0.55
17.864,-0.10,-0.01,-0.50,0.51
17.874,-0.19,-0.07,-0.49,0.53
17.884,-0.29,-0.07,-0.45,0.54
17.894,-0.35,-0.07,-0.43,0.56
17.904,-0.42,-0.06,-0.39,0.58
17.914,-0.46,-0.03,-0.33,0.56
17.924,-0.42,-0.07,-0.29,0.52
17.934,-0.35,-0.13,-0.25,0.46
17.944,-0.30,-0.21,-0.23,0.43
17.954,-0.25,-0.20,-0.21,0.38
17.964,-0.25,-0.17,-0.17,0.35
17.974,-0.27,-0.17,-0.15,0.35
17.984,-0.31,-0.20,-0.14,0.39
17.994,-0.37,-0.20,-0.11,0.44
18.004,-0.41,-0.25,-0.04,0.48
18.014,-0.45,-0.34,-0.00,0.56
18.024,-0.41,-0.43,-0.00,0.60
18.034,-0.40,-0.46,0.05,0.61
18.044,-0.37,-0.43,0.13,0.58
18.054,-0.37,-0.41,0.21,0.59
18.065,-0.37,-0.46,0.27,0.65
18.074,-0.36,-0.54,0.34,0.73
18.084,-0.30,-0.63,0.36,0.78
18.094,-0.23,-0.69,0.40,0.83
18.104,-0.30,-0.71,0.49,0.92
18.114,-0.36,-0.71,0.52,0.95
18.124,-0.39,-0.70,0.44,0.91
18.134,-0.38,-0.61,0.39,0.82
18.144,-0.34,-0.49,0.35,0.69
18.154,-0.39,-0.37,0.32,0.63
18.165,-0.37,-0.35,0.22,0.55
18.174,-0.29,-0.37,0.07,0.47
18.184,-0.25,-0.34,-0.10,0.44
18.194,-0.16,-0.33,-0.19,0.41
18.204,-0.13,-0.34,-0.23,0.43
18.215,-0.12,-0.39,-0.23,0.47
18.224,-0.06,-0.50,-0.18,0.54
18.234,0.10,-0.73,-0.08,0.74
18.244,0.30,-1.01,0.06,1.05
18.254,0.49,-1.22,0.20,1.33
18.264,0.77,-1.23,0.40,1.51
18.274,0.91,-1.15,0.54,1.57
18.285,0.81,-1.02,0.50,1.39
18.294,0.89,-0.90,0.46,1.35
18.304,1.29,-0.87,0.29,1.58
18.314,1.63,-0.69,0.20,1.78
18.324,1.50,-0.35,0.15,1.55
18.334,1.16,-0.09,0.08,1.17
18.345,1.00,0.05,-0.10,1.01
18.355,0.91,0.05,-0.52,1.05
18.365,0.88,0.06,-0.98,1.32
18.374,1.02,0.05,-1.53,1.84
18.385,1.17,0.27,-2.06,2.38
18.395,1.20,0.68,-2.46,2.82
18.405,0.93,1.17,-2.57,2.97
18.414,0.46,1.49,-2.46,2.91
18.425,-0.10,1.63,-2.38,2.88
18.435,-0.65,1.71,-2.27,2.91
18.445,-1.16,1.86,-1.94,2.93
18.455,-1.51,2.01,-1.37,2.87
18.465,-1.65,2.01,-0.85,2.74
18.475,-1.62,1.92,-0.58,2.58
18.485,-1.25,1.73,-0.45,2.18
18.495,-0.71,1.49,-0.36,1.69
18.505,-0.19,1.20,-0.36,1.27
18.515,0.25,0.97,-0.39,1.07
18.525,0.41,0.76,-0.44,0.97
18.535,0.54,0.51,-0.53,0.91
18.545,0.59,0.28,-0.57,0.87
18.555,0.60,0.13,-0.62,0.87
18.565,0.45,0.08,-0.64,0.79
18.575,0.16,0.17,-0.69,0.73
18.585,-0.23,0.42,-0.64,0.80
18.595,-0.64,0.75,-0.49,1.10
18.605,-1.07,1.02,-0.44,1.54
18.615,-1.38,1.15,-0.32,1.82
18.625,-1.59,1.09,-0.20,1.94
18.635,-1.68,0.89,-0.18,1.91
18.645,-1.52,0.76,-0.18,1.71
18.655,-1.23,0.63,-0.26,1.41
18.665,-0.86,0.58,-0.38,1.10
18.675,-0.39,0.58,-0.44,0.83
18.685,0.04,0.67,-0.49,0.83
18.695,0.49,0.80,-0.52,1.07
18.705,0.78,0.95,-0.50,1.33
18.715,0.92,1.04,-0.37,1.44
18.725,0.85,1.08,-0.22,1.40
18.735,0.64,1.07,-0.09,1.25
18.745,0.32,1.04,0.12,1.10
18.755,-0.14,1.02,0.22,1.06
18.765,-0.57,0.97,0.37,1.19
18.775,-0.91,0.84,0.43,1.31
18.785,-1.09,0.64,0.48,1.35
18.795,-1.00,0.51,0.53,1.24
18.805,-1.02,0.06,0.43,1.11
18.815,-1.12,-0.02,0.50,1.23
18.825,-0.77,-0.12,0.53,0.94
18.835,-0.42,-0.14,0.44,0.62
18.845,-0.54,-0.18,0.50,0.76
18.855,-0.70,-0.27,0.71,1.04
18.865,-0.66,-0.27,0.91,1.15
18.875,-0.61,-0.29,0.99,1.20
18.885,-0.62,-0.23,1.01,1.21
18.895,-0.79,-0.17,0.92,1.23
18.905,-0.81,-0.06,0.89,1.21
18.915,-0.60,0.12,0.91,1.09
18.925,-0.38,0.27,0.97,1.08
18.935,-0.21,0.24,1.07,1.12
18.945,-0.15,0.05,1.04,1.06
18.955,-0.11,-0.00,0.99,0.99
18.965,-0.09,-0.02,0.94,0.94
18.975,0.05,0.10,0.80,0.81
18.985,-0.02,0.30,0.69,0.75
18.995,-0.22,0.49,0.69,0.88
19.005,-0.34,0.60,0.78,1.04
19.015,-0.37,0.61,0.93,1.17
19.025,-0.40,0.55,1.20,1.38
19.035,-0.38,0.39,1.46,1.56
19.045,-0.38,0.13,1.70,1.74
19.055,-0.30,-0.14,1.68,1.71
19.065,0.12,-0.23,1.19,1.22
19.075,0.98,-0.13,0.38,1.06
19.085,1.95,-0.12,0.01,1.95
19.095,3.30,-0.00,0.04,3.30
19.105,4.39,0.67,-0.05,4.44
19.115,3.77,1.74,-0.45,4.18
19.125,2.04,2.61,-0.59,3.37
19.135,0.75,3.08,-0.51,3.21
19.145,0.31,3.02,-0.49,3.07
19.155,0.42,2.44,-0.62,2.55
19.165,0.67,1.77,-0.65,2.00
19.176,0.88,1.39,-0.53,1.73
19.185,0.67,1.15,-0.51,1.42
19.195,-0.18,0.86,-0.64,1.09
19.205,-0.93,0.66,-0.74,1.36
19.215,-1.43,0.47,-1.12,1.87
19.225,-1.50,0.30,-1.56,2.18
19.235,-1.24,0.18,-1.94,2.31
19.245,-0.76,0.17,-2.28,2.41
19.255,-0.42,0.17,-2.64,2.68
19.265,-0.47,0.22,-2.98,3.03
19.275,-0.44,0.43,-3.15,3.21
19.285,-0.32,0.71,-3.15,3.25
19.295,-0.33,0.96,-2.98,3.15
19.305,-0.37,1.17,-2.75,3.01
19.315,-0.34,1.33,-2.44,2.80
19.325,-0.43,1.34,-2.23,2.64
19.335,-0.49,1.21,-2.01,2.40
19.345,-0.33,0.98,-1.90,2.17
19.355,-0.02,0.64,-1.85,1.95
19.365,0.26,0.36,-1.82,1.87
19.375,0.35,0.20,-1.79,1.83
19.385,0.33,0.13,-1.70,1.74
19.395,0.26,0.08,-1.61,1.63
19.405,0.13,0.06,-1.51,1.51
19.415,-0.00,0.02,-1.45,1.45
19.425,-0.15,-0.02,-1.45,1.45
19.435,-0.32,-0.10,-1.39,1.43
19.445,-0.44,-0.15,-1.33,1.41
19.455,-0.39,-0.18,-1.26,1.33
19.465,-0.41,-0.11,-1.21,1.28
19.475,-0.49,-0.04,-1.13,1.23
19.485,-0.47,-0.02,-1.07,1.17
19.495,-0.39,-0.06,-1.04,1.11
19.505,-0.24,-0.06,-1.04,1.07
19.515,-0.11,-0.03,-1.02,1.03
19.525,-0.02,0.02,-0.96,0.96
19.535,-0.01,0.03,-0.89,0.89
19.546,-0.11,-0.01,-0.82,0.83
19.556,-0.25,-0.10,-0.75,0.79
19.566,-0.39,-0.19,-0.68,0.80
19.575,-0.47,-0.26,-0.64,0.84
19.586,-0.46,-0.35,-0.63,0.86
19.596,-0.34,-0.36,-0.60,0.78
19.606,-0.21,-0.30,-0.50,0.62
19.616,-0.12,-0.19,-0.41,0.47
19.626,-0.12,-0.08,-0.40,0.42
19.636,-0.11,0.10,-0.40,0.42
19.646,-0.14,0.26,-0.38,0.48
19.656,-0.20,0.34,-0.37,0.54
19.666,-0.30,0.32,-0.34,0.55
19.676,-0.36,0.22,-0.26,0.49
19.686,-0.38,-0.00,-0.19,0.42
19.696,-0.42,-0.27,-0.06,0.50
19.706,-0.43,-0.57,0.02,0.71
19.716,-0.40,-0.82,-0.02,0.91
19.726,-0.31,-0.93,-0.12,0.98
19.736,-0.22,-0.93,-0.19,0.98
19.746,-0.07,-0.83,-0.35,0.90
19.756,0.11,-0.57,-0.47,0.75
19.766,0.20,-0.25,-0.45,0.55
19.776,0.17,-0.01,-0.46,0.49
19.786,0.07,0.20,-0.38,0.43
19.796,-0.09,0.34,-0.31,0.47
19.806,-0.23,0.38,-0.34,0.56
19.816,-0.39,0.34,-0.36,0.63
19.826,-0.49,0.19,-0.35,0.63
19.836,-0.50,0.03,-0.32,0.59
19.846,-0.46,-0.14,-0.31,0.57
19.856,-0.36,-0.28,-0.32,0.56
19.866,-0.28,-0.36,-0.28,0.54
19.876,-0.10,-0.42,-0.28,0.52
19.886,0.02,-0.42,-0.23,0.48
19.896,0.08,-0.41,-0.15,0.44
19.906,0.17,-0.36,-0.00,0.40
19.916,0.20,-0.42,0.17,0.49
19.926,0.21,-0.53,0.24,0.62
19.936,0.26,-0.72,0.17,0.78
19.946,0.32,-0.90,-0.01,0.96
19.956,0.41,-0.92,-0.11,1.02
19.966,0.54,-0.78,-0.07,0.96
19.976,0.63,-0.52,0.04,0.82
19.986,0.63,-0.26,0.18,0.70
19.996,0.59,-0.03,0.27,0.65
20.006,0.66,0.16,0.27,0.73
20.016,0.70,0.22,0.24,0.78
20.026,0.83,0.21,0.28,0.91
20.036,1.18,0.19,0.37,1.25
20.046,1.63,0.10,0.55,1.72
20.056,2.15,-0.09,0.76,2.28
20.066,2.66,-0.44,0.96,2.86
20.076,2.92,-0.80,1.12,3.23
20.086,2.91,-1.03,1.28,3.35
20.096,2.76,-1.19,1.33,3.29
20.106,2.49,-1.24,1.33,3.09
20.116,2.00,-1.14,1.28,2.63
20.126,1.54,-0.90,1.19,2.14
20.136,1.29,-0.39,0.84,1.59
20.146,1.21,0.17,0.32,1.26
20.156,1.11,0.53,-0.31,1.27
20.166,1.06,0.70,-0.80,1.50
20.176,1.04,0.66,-1.15,1.69
20.186,1.08,0.67,-1.42,1.90
20.196,1.14,0.76,-1.57,2.09
20.206,1.05,0.94,-1.73,2.23
20.216,0.80,1.12,-1.84,2.30
20.226,0.61,1.29,-1.89,2.37
20.236,0.47,1.52,-1.85,2.44
20.246,0.22,1.72,-1.79,2.49
20.256,-0.01,1.87,-1.84,2.62
20.266,-0.22,1.99,-1.74,2.65
20.276,-0.43,2.05,-1.61,2.64
20.286,-0.56,2.09,-1.63,2.71
20.296,-0.54,2.07,-1.66,2.70
20.306,-0.49,1.93,-1.69,2.61
20.316,-0.44,1.80,-1.69,2.51
20.326,-0.39,1.68,-1.62,2.37
20.336,-0.29,1.52,-1.54,2.18
20.346,-0.18,1.36,-1.45,2.00
20.356,-0.13,1.26,-1.35,1.85
20.366,-0.11,1.19,-1.30,1.77
20.376,-0.17,1.11,-1.22,1.66
20.386,-0.31,1.04,-1.17,1.60
20.396,-0.48,1.00,-1.18,1.62
20.406,-0.69,1.04,-1.21,1.74
20.416,-0.85,1.06,-1.22,1.83
20.426,-0.99,1.06,-1.20,1.88
20.436,-1.04,1.04,-1.15,1.87
20.446,-1.10,0.97,-1.12,1.85
20.456,-1.11,0.91,-1.10,1.81
20.466,-1.08,0.92,-0.98,1.73
20.476,-1.04,0.93,-0.82,1.61
20.486,-1.00,0.95,-0.72,1.56
20.496,-0.93,0.99,-0.61,1.48
20.506,-0.90,0.93,-0.56,1.41
20.516,-0.80,0.81,-0.54,1.26
20.526,-0.75,0.64,-0.49,1.10
20.536,-0.78,0.44,-0.47,1.01
20.546,-0.79,0.31,-0.42,0.95
20.556,-0.84,0.26,-0.37,0.95
20.566,-0.77,0.32,-0.39,0.92
20.576,-0.78,0.41,-0.40,0.96
20.586,-0.89,0.55,-0.37,1.11
20.596,-1.04,0.67,-0.40,1.30
20.606,-1.20,0.81,-0.37,1.49
20.616,-1.30,0.72,-0.39,1.54
20.626,-1.16,0.89,-0.43,1.53
20.637,-1.25,0.99,-0.40,1.64
20.646,-1.30,0.91,-0.38,1.63
20.657,-1.18,0.75,-0.36,1.44
20.666,-1.09,0.66,-0.35,1.32
20.676,-1.09,0.57,-0.35,1.28
20.687,-1.08,0.47,-0.38,1.23
20.697,-0.97,0.42,-0.40,1.13
20.707,-0.86,0.44,-0.39,1.05
20.717,-0.82,0.44,-0.42,1.02
20.727,-0.78,0.42,-0.41,0.98
20.737,-0.72,0.43,-0.33,0.90
20.747,-0.73,0.47,-0.17,0.89
20.757,-0.88,0.55,-0.10,1.04
20.767,-1.04,0.66,-0.02,1.23
20.777,-1.11,0.74,0.01,1.34
20.787,-1.13,0.70,-0.03,1.33
20.797,-1.01,0.62,0.01,1.18
20.807,-0.81,0.54,0.05,0.97
20.817,-0.55,0.47,0.11,0.73
20.827,-0.31,0.40,0.21,0.55
20.837,-0.14,0.34,0.33,0.50
20.847,-0.13,0.29,0.41,0.52
20.857,-0.19,0.25,0.51,0.60
20.867,-0.39,0.19,0.59,0.73
20.877,-0.61,0.16,0.59,0.86
20.887,-0.77,0.07,0.59,0.97
20.897,-0.79,0.02,0.66,1.03
20.907,-0.60,-0.02,0.75,0.96
20.917,-0.35,-0.03,0.75,0.82
20.927,-0.05,0.03,0.84,0.84
20.937,0.13,0.05,0.96,0.97
20.947,0.29,-0.01,1.02,1.06
20.957,0.45,-0.08,1.05,1.15
20.967,0.59,-0.11,1.07,1.22
20.977,0.64,-0.17,0.99,1.19
20.987,0.60,-0.24,0.82,1.04
20.997,0.50,-0.22,0.56,0.78
21.007,0.44,0.02,0.32,0.55
21.017,0.39,0.31,0.25,0.56
21.027,0.39,0.49,0.15,0.65
21.037,0.85,0.82,-0.00,1.18
21.047,1.77,1.11,-0.14,2.10
21.057,2.84,1.24,-0.24,3.11
21.067,3.72,1.20,-0.37,3.92
21.077,3.98,0.93,-0.24,4.09
21.087,4.18,0.67,-0.11,4.24
21.097,4.45,0.66,-0.15,4.50
21.107,4.57,0.67,-0.48,4.64
21.117,4.26,0.71,-0.32,4.33
21.127,3.13,0.82,-0.39,3.26
21.137,1.84,1.11,-0.61,2.23
21.147,0.97,1.36,-0.61,1.78
21.157,0.27,1.40,-0.68,1.58
21.167,-0.15,1.33,-1.01,1.68
21.177,-0.43,1.26,-1.39,1.92
21.187,-0.59,1.16,-1.83,2.24
21.197,-0.61,1.06,-2.23,2.54
21.207,-0.49,0.97,-2.43,2.66
21.217,-0.20,0.89,-2.35,2.52
21.227,0.02,0.78,-2.24,2.37
21.237,0.00,0.69,-2.18,2.28
21.247,-0.19,0.71,-2.05,2.17
21.257,-0.55,0.82,-1.80,2.05
21.267,-0.89,0.96,-1.52,2.01
21.277,-1.23,1.00,-1.36,2.09
21.287,-1.48,0.90,-1.30,2.16
21.297,-1.52,0.70,-1.24,2.08
21.307,-1.44,0.50,-1.23,1.95
21.317,-1.31,0.24,-1.16,1.76
21.327,-1.23,0.01,-1.13,1.67
21.337,-1.20,-0.12,-1.03,1.59
21.347,-1.32,-0.20,-1.03,1.69
21.357,-1.48,-0.20,-1.01,1.80
21.367,-1.58,-0.15,-0.97,1.86
21.377,-1.71,-0.04,-0.93,1.95
21.387,-1.80,0.08,-0.91,2.02
21.397,-1.82,0.22,-0.94,2.06
21.407,-1.86,0.35,-1.01,2.15
21.417,-1.90,0.40,-1.03,2.19
21.427,-1.97,0.40,-1.08,2.28
21.437,-1.93,0.37,-1.01,2.22
21.447,-1.90,0.20,-1.00,2.16
21.457,-1.91,0.01,-1.00,2.16
21.467,-1.96,-0.17,-0.96,2.19
21.477,-1.92,-0.27,-0.87,2.12
21.487,-1.79,-0.26,-0.80,1.97
21.497,-1.60,-0.24,-0.72,1.77
21.507,-1.35,-0.23,-0.71,1.54
21.517,-1.16,-0.19,-0.76,1.40
21.527,-0.86,-0.13,-0.71,1.12
21.537,-0.56,-0.13,-0.66,0.88
21.547,-0.33,-0.17,-0.60,0.70
21.557,-0.23,-0.20,-0.53,0.61
21.567,-0.25,-0.21,-0.38,0.50
21.577,-0.28,-0.25,-0.21,0.43
21.587,-0.32,-0.29,-0.20,0.48
21.597,-0.35,-0.26,-0.15,0.46
21.607,-0.45,-0.20,-0.15,0.51
21.617,-0.54,-0.12,-0.16,0.57
21.627,-0.58,-0.04,-0.22,0.62
21.637,-0.51,0.01,-0.28,0.58
21.647,-0.38,0.01,-0.38,0.53
21.657,-0.23,0.03,-0.40,0.46
21.667,-0.19,0.04,-0.37,0.42
21.677,-0.14,0.06,-0.33,0.36
21.687,-0.21,0.02,-0.22,0.31
21.697,-0.32,-0.02,-0.20,0.37
21.707,-0.45,-0.12,-0.16,0.49
21.717,-0.54,-0.22,-0.11,0.59
21.727,-0.53,-0.34,-0.05,0.63
21.737,-0.50,-0.42,-0.04,0.66
21.747,-0.44,-0.48,0.01,0.65
21.757,-0.30,-0.45,0.03,0.54
21.767,-0.17,-0.39,0.07,0.43
21.777,-0.08,-0.36,0.11,0.38
21.787,-0.00,-0.34,0.17,0.38
21.797,0.02,-0.32,0.27,0.42
21.807,-0.03,-0.30,0.35,0.46
21.817,-0.06,-0.30,0.42,0.51
21.827,-0.10,-0.34,0.45,0.57
21.837,-0.09,-0.46,0.44,0.65
21.847,-0.01,-0.56,0.56,0.79
21.857,0.14,-0.58,0.67,0.90
21.867,0.28,-0.56,0.80,1.02
21.877,0.36,-0.50,0.92,1.11
21.888,0.43,-0.47,0.90,1.10
21.897,0.56,-0.41,0.82,1.08
21.907,0.72,-0.31,0.62,1.00
21.918,0.90,-0.22,0.33,0.98
21.927,1.10,-0.09,-0.03,1.10
21.938,1.33,0.08,-0.34,1.37
21.948,1.60,0.16,-0.51,1.69
21.958,1.96,0.19,-0.53,2.04
21.968,2.33,0.14,-0.47,2.38
21.978,2.66,-0.01,-0.32,2.68
21.988,2.89,-0.25,-0.18,2.91
21.998,3.16,-0.49,-0.03,3.20
22.008,3.72,-0.51,0.01,3.76
22.018,4.57,-0.27,-0.11,4.58
22.028,5.22,0.19,-0.27,5.23
22.038,5.24,0.72,-0.35,5.31
22.048,4.79,1.08,-0.72,4.97
22.058,4.32,1.41,-1.17,4.69
22.068,3.76,1.61,-1.62,4.40
22.078,3.16,1.56,-1.98,4.04
22.088,1.88,1.43,-2.22,3.24
22.098,0.54,1.46,-2.20,2.70
22.108,-0.37,1.60,-1.95,2.55
22.118,-0.90,1.66,-1.75,2.57
22.128,-1.14,1.64,-1.68,2.61
22.138,-1.20,1.60,-1.54,2.52
22.148,-1.20,1.47,-1.45,2.39
22.158,-1.23,1.35,-1.37,2.28
22.168,-1.27,1.30,-1.40,2.30
22.178,-1.47,1.32,-1.35,2.39
22.188,-1.77,1.29,-1.17,2.48
22.198,-2.12,1.17,-1.06,2.64
22.208,-2.33,0.94,-1.04,2.73
22.218,-2.37,0.68,-1.03,2.67
22.228,-2.21,0.45,-0.92,2.44
22.238,-2.02,0.30,-0.82,2.20
22.248,-1.85,0.25,-0.74,2.01
22.258,-1.74,0.30,-0.70,1.90
22.268,-1.65,0.32,-0.70,1.83
22.278,-1.63,0.29,-0.66,1.78
22.288,-1.73,0.23,-0.64,1.86
22.298,-1.89,0.25,-0.57,1.99
22.308,-2.04,0.26,-0.55,2.13
22.318,-2.01,0.29,-0.52,2.10
22.328,-1.93,0.31,-0.50,2.02
22.338,-1.89,0.36,-0.51,1.99
22.348,-1.80,0.43,-0.46,1.91
22.358,-1.70,0.49,-0.43,1.83
22.368,-1.62,0.52,-0.37,1.74
22.378,-1.52,0.44,-0.25,1.60
22.388,-1.42,0.29,-0.15,1.46
22.398,-1.28,0.18,-0.07,1.30
22.408,-1.09,0.11,-0.05,1.10
22.418,-0.99,0.10,-0.04,0.99
22.428,-0.95,0.15,-0.02,0.96
22.438,-1.02,0.20,0.02,1.04
22.448,-1.00,0.31,0.10,1.05
22.458,-0.89,0.36,0.18,0.98
22.468,-0.80,0.38,0.24,0.91
22.478,-0.68,0.32,0.20,0.78
22.488,-0.59,0.27,0.08,0.66
22.498,-0.60,0.25,0.10,0.66
22.508,-0.70,0.22,0.13,0.74
22.518,-0.77,0.16,0.19,0.81
22.528,-0.74,0.20,0.27,0.81
22.538,-0.82,0.10,0.30,0.88
22.548,-0.61,0.47,0.31,0.83
22.558,-0.73,0.69,0.42,1.09
22.568,-0.71,0.74,0.49,1.14
22.578,-0.69,0.68,0.41,1.05
22.588,-0.79,0.72,0.42,1.14
22.598,-0.80,0.65,0.49,1.14
22.608,-0.63,0.51,0.53,0.96
22.618,-0.44,0.43,0.56,0.84
22.628,-0.41,0.43,0.63,0.87
22.638,-0.34,0.49,0.77,0.97
22.648,-0.34,0.52,0.84,1.04
22.658,-0.40,0.56,0.93,1.16
22.668,-0.48,0.54,1.00,1.23
22.678,-0.47,0.41,1.07,1.24
22.688,-0.36,0.18,1.08,1.15
22.698,-0.09,0.04,1.03,1.04
22.708,0.23,0.08,0.96,0.99
22.718,0.32,0.07,1.06,1.11
22.728,0.50,0.06,0.79,0.93
22.738,0.76,0.15,0.36,0.86
22.748,1.19,0.43,0.16,1.28
22.758,1.48,0.63,0.13,1.61
22.768,1.67,0.71,0.26,1.84
22.778,1.83,0.77,0.36,2.02
22.788,1.85,0.75,0.38,2.03
22.798,1.73,0.71,0.36,1.90
22.808,1.74,0.83,0.42,1.98
22.818,1.98,1.06,0.31,2.26
22.828,2.23,1.30,0.19,2.58
22.838,2.39,1.48,0.11,2.81
22.848,2.54,1.58,-0.02,2.99
22.858,2.76,1.61,-0.34,3.22
22.868,2.97,1.59,-0.58,3.42
22.878,2.95,1.35,-0.62,3.31
22.888,2.70,0.96,-0.64,2.94
22.898,2.19,0.63,-0.82,2.42
22.908,1.33,0.43,-1.03,1.74
22.918,0.52,0.44,-1.10,1.29
22.928,-0.23,0.58,-1.22,1.37
22.938,-0.80,0.82,-1.32,1.75
22.948,-1.14,1.12,-1.46,2.17
22.958,-1.26,1.26,-1.62,2.41
22.968,-1.24,1.24,-1.71,2.45
22.978,-1.13,1.09,-1.79,2.38
22.988,-1.02,0.82,-1.84,2.26
22.998,-0.92,0.49,-1.86,2.13
23.008,-0.92,0.17,-1.88,2.10
23.018,-1.03,-0.09,-1.92,2.17
23.028,-1.11,-0.25,-1.80,2.13
23.038,-1.26,-0.40,-1.68,2.14
23.049,-1.37,-0.49,-1.61,2.17
23.058,-1.41,-0.50,-1.54,2.14
23.068,-1.32,-0.52,-1.41,2.00
23.078,-1.28,-0.57,-1.44,2.01
23.088,-1.28,-0.52,-1.50,2.04
23.098,-1.22,-0.36,-1.50,1.97
23.108,-1.12,-0.10,-1.46,1.84
23.118,-0.95,0.18,-1.50,1.78
23.128,-0.81,0.50,-1.50,1.78
23.138,-0.74,0.76,-1.33,1.70
23.149,-0.63,0.89,-1.17,1.60
23.159,-0.57,0.85,-1.13,1.52
23.169,-0.50,0.70,-1.10,1.39
23.179,-0.46,0.50,-1.12,1.31
23.189,-0.35,0.38,-1.12,1.23
23.199,-0.27,0.29,-1.10,1.17
23.209,-0.20,0.20,-1.05,1.09
23.219,-0.20,0.11,-0.97,1.00
23.229,-0.17,0.03,-0.91,0.93
23.239,-0.16,-0.05,-0.92,0.94
23.249,-0.13,-0.15,-0.88,0.90
23.259,0.01,-0.24,-0.86,0.89
23.269,0.11,-0.23,-0.80,0.84
23.279,0.10,-0.23,-0.77,0.81
23.289,0.04,-0.18,-0.68,0.70
23.299,-0.02,-0.13,-0.60,0.61
23.309,-0.14,-0.06,-0.54,0.56
23.319,-0.26,-0.01,-0.46,0.53
23.329,-0.38,-0.04,-0.42,0.57
23.339,-0.57,-0.05,-0.41,0.70
23.349,-0.68,-0.06,-0.36,0.77
23.359,-0.69,-0.17,-0.36,0.80
23.369,-0.75,-0.23,-0.41,0.88
23.379,-0.77,-0.23,-0.42,0.90
23.389,-0.76,-0.25,-0.43,0.91
23.399,-0.76,-0.31,-0.41,0.92
23.409,-0.77,-0.37,-0.45,0.97
23.419,-0.75,-0.40,-0.50,0.98
23.429,-0.71,-0.40,-0.55,0.98
23.439,-0.67,-0.37,-0.55,0.95
23.449,-0.60,-0.39,-0.55,0.90
23.459,-0.57,-0.40,-0.48,0.85
23.469,-0.59,-0.41,-0.38,0.81
23.479,-0.55,-0.42,-0.31,0.76
23.489,-0.53,-0.42,-0.29,0.73
23.499,-0.47,-0.41,-0.30,0.70
23.509,-0.44,-0.42,-0.37,0.71
23.519,-0.42,-0.43,-0.37,0.71
23.529,-0.41,-0.45,-0.39,0.73
23.539,-0.29,-0.52,-0.40,0.72
23.549,-0.16,-0.58,-0.38,0.71
23.559,-0.04,-0.58,-0.40,0.71
23.569,0.05,-0.51,-0.38,0.63
23.579,0.02,-0.41,-0.33,0.53
23.589,0.01,-0.29,-0.27,0.40
23.599,-0.06,-0.22,-0.21,0.31
23.609,-0.16,-0.24,-0.14,0.32
23.619,-0.26,-0.23,-0.09,0.35
23.629,-0.27,-0.26,-0.07,0.38
23.639,-0.28,-0.32,0.00,0.42
23.649,-0.26,-0.42,0.09,0.50
23.659,-0.13,-0.52,0.14,0.55
23.669,-0.02,-0.58,0.14,0.59
23.679,0.09,-0.57,0.07,0.58
23.689,0.12,-0.48,-0.00,0.49
23.699,0.06,-0.32,-0.05,0.33
23.709,0.05,-0.25,-0.12,0.28
23.719,0.14,-0.24,-0.18,0.33
23.729,0.28,-0.27,-0.18,0.42
23.739,0.58,-0.25,-0.14,0.65
23.749,0.86,-0.11,0.02,0.87
23.759,0.92,0.08,0.18,0.94
23.769,0.93,0.23,0.32,1.01
23.779,1.04,0.24,0.41,1.14
23.789,1.23,0.16,0.52,1.35
23.799,1.43,0.01,0.57,1.54
23.809,1.62,-0.07,0.75,1.79
23.819,1.85,-0.06,0.98,2.09
23.829,2.29,0.03,1.04,2.51
23.839,2.96,0.13,0.93,3.11
23.849,3.76,0.02,0.83,3.85
23.859,4.59,-0.28,0.62,4.64
23.869,5.17,-0.40,0.33,5.19
23.879,5.37,-0.17,-0.05,5.37
23.889,5.11,0.26,-0.46,5.14
23.899,4.67,0.76,-1.02,4.84
23.909,4.19,1.21,-1.60,4.65
23.919,3.53,1.50,-1.87,4.27
23.929,2.21,1.48,-1.89,3.26
23.939,0.92,1.21,-1.73,2.30
23.949,0.15,0.72,-1.66,1.81
23.959,-0.10,0.36,-1.70,1.74
23.969,-0.12,0.28,-1.51,1.54
23.979,-0.12,0.40,-1.23,1.30
23.989,-0.17,0.55,-1.10,1.24
23.999,-0.37,0.72,-1.13,1.39
24.011,-0.67,0.93,-1.04,1.55
24.019,-1.14,1.06,-1.00,1.85
24.029,-1.59,1.15,-1.00,2.20
24.039,-1.96,1.25,-0.99,2.53
24.049,-2.25,1.36,-0.94,2.79
24.059,-2.32,1.33,-0.99,2.85
24.069,-2.18,1.17,-1.01,2.67
24.079,-2.03,0.89,-0.95,2.41
24.089,-1.80,0.59,-0.88,2.09
24.099,-1.55,0.35,-0.84,1.80
24.109,-1.35,0.19,-0.74,1.55
24.119,-1.35,0.06,-0.62,1.49
24.129,-1.42,-0.08,-0.58,1.53
24.139,-1.57,-0.18,-0.63,1.70
24.149,-1.73,-0.21,-0.65,1.86
24.159,-1.95,-0.19,-0.60,2.05
24.169,-2.11,-0.09,-0.63,2.20
24.179,-2.27,0.03,-0.70,2.37
24.189,-2.33,0.15,-0.76,2.46
24.199,-2.38,0.30,-0.74,2.51
24.209,-2.34,0.48,-0.67,2.48
24.219,-2.26,0.59,-0.60,2.41
24.229,-2.12,0.61,-0.57,2.28
24.239,-1.87,0.61,-0.57,2.05
24.249,-1.64,0.65,-0.52,1.84
24.259,-1.58,0.71,-0.40,1.78
24.269,-1.65,0.71,-0.29,1.82
24.279,-1.71,0.68,-0.26,1.86
24.289,-1.67,0.66,-0.28,1.82
24.299,-1.59,0.60,-0.32,1.73
24.309,-1.49,0.52,-0.32,1.61
24.319,-1.38,0.46,-0.32,1.49
24.329,-1.26,0.44,-0.34,1.38
24.340,-1.10,0.45,-0.30,1.23
24.350,-0.93,0.42,-0.24,1.05
24.360,-0.78,0.43,-0.13,0.90
24.370,-0.64,0.28,-0.04,0.70
24.380,-0.34,0.50,-0.04,0.61
24.390,-0.28,0.67,-0.03,0.73
24.400,-0.21,0.75,0.05,0.78
24.410,-0.25,0.66,0.09,0.71
24.419,-0.40,0.61,0.15,0.74
24.430,-0.53,0.52,0.28,0.80
24.440,-0.59,0.41,0.33,0.79
24.450,-0.68,0.36,0.32,0.83
24.460,-0.70,0.35,0.28,0.83
24.470,-0.59,0.35,0.26,0.74
24.480,-0.50,0.36,0.30,0.69
24.490,-0.50,0.30,0.43,0.72
24.500,-0.51,0.15,0.49,0.72
24.510,-0.51,-0.00,0.55,0.74
24.520,-0.58,-0.12,0.62,0.86
24.530,-0.53,-0.21,0.65,0.86
24.540,-0.52,-0.37,0.59,0.87
24.550,-0.57,-0.47,0.57,0.93
24.560,-0.50,-0.41,0.58,0.87
24.570,-0.43,-0.29,0.59,0.79
24.580,-0.31,-0.11,0.58,0.67
24.590,-0.21,0.06,0.68,0.71
24.600,-0.02,0.10,0.87,0.87
24.610,0.27,0.10,1.01,1.05
24.620,0.63,0.09,1.01,1.19
24.630,0.85,-0.00,1.03,1.34
24.640,0.85,-0.14,1.18,1.46
24.650,0.74,-0.27,1.32,1.54
24.660,0.71,-0.32,1.20,1.43
24.670,0.79,-0.29,0.97,1.29
24.680,1.03,-0.17,0.70,1.26
24.690,1.42,0.21,0.31,1.47
24.700,1.82,0.83,0.24,2.02
24.710,2.14,1.39,0.50,2.60
24.720,2.43,1.72,0.73,3.06
24.730,2.71,1.78,0.92,3.37
24.740,3.16,1.61,0.98,3.68
24.750,3.60,1.38,0.98,3.98
24.760,3.67,1.07,0.67,3.88
24.770,3.73,0.92,0.39,3.87
24.780,3.93,1.02,0.48,4.09
24.790,3.75,1.00,0.28,3.89
24.800,3.63,1.02,-0.08,3.77
24.810,3.35,1.13,-0.13,3.53
24.820,2.39,1.05,-0.50,2.66
24.830,1.17,1.01,-1.01,1.85
24.840,0.12,1.05,-1.49,1.83
24.850,-0.75,1.15,-1.84,2.30
24.860,-1.23,1.29,-2.26,2.87
24.870,-1.43,1.44,-2.61,3.31
24.880,-1.30,1.45,-2.86,3.46
24.890,-0.78,1.31,-2.87,3.25
24.900,-0.04,1.08,-2.70,2.91
24.910,0.53,0.82,-2.54,2.72
24.920,0.67,0.62,-2.45,2.61
24.930,0.35,0.50,-2.34,2.42
24.940,-0.28,0.46,-2.18,2.24
24.950,-0.96,0.44,-2.06,2.31
24.960,-1.54,0.45,-1.99,2.56
24.970,-1.76,0.41,-1.89,2.62
24.980,-1.80,0.27,-1.79,2.55
24.990,-1.71,0.18,-1.65,2.38
25.000,-1.60,0.15,-1.47,2.17
25.010,-1.58,0.12,-1.34,2.08
25.020,-1.64,0.09,-1.26,2.07
25.030,-1.70,0.03,-1.18,2.07
25.040,-1.82,-0.02,-1.13,2.14
25.050,-1.92,-0.07,-1.03,2.18
25.060,-1.99,-0.14,-1.02,2.24
25.070,-2.02,-0.17,-0.92,2.23
25.080,-2.07,-0.24,-0.87,2.26
25.090,-2.07,-0.27,-0.84,2.25
25.100,-1.93,-0.22,-0.83,2.11
25.110,-1.77,-0.12,-0.85,1.96
25.120,-1.59,-0.02,-0.90,1.83
25.130,-1.47,0.02,-0.93,1.74
25.140,-1.43,-0.01,-1.06,1.78
25.150,-1.41,0.02,-1.12,1.80
25.160,-1.44,0.07,-1.10,1.82
25.170,-1.43,0.10,-1.04,1.77
25.180,-1.33,0.03,-0.92,1.62
25.190,-1.18,-0.05,-0.83,1.44
25.200,-1.05,-0.13,-0.81,1.34
25.210,-0.93,-0.20,-0.69,1.17
25.220,-0.77,-0.28,-0.59,1.01
25.230,-0.65,-0.35,-0.56,0.93
25.240,-0.59,-0.31,-0.55,0.87
25.250,-0.48,-0.24,-0.48,0.72
25.260,-0.46,-0.20,-0.42,0.65
25.270,-0.37,-0.20,-0.43,0.61
25.280,-0.32,-0.18,-0.46,0.59
25.290,-0.24,-0.16,-0.46,0.54
25.300,-0.21,-0.12,-0.41,0.47
25.310,-0.20,-0.11,-0.38,0.44
25.320,-0.20,-0.11,-0.31,0.39
25.330,-0.22,-0.15,-0.26,0.37
25.340,-0.30,-0.20,-0.18,0.40
25.350,-0.38,-0.29,-0.12,0.50
25.360,-0.43,-0.42,-0.12,0.61
25.370,-0.44,-0.56,-0.11,0.72
25.380,-0.39,-0.66,-0.05,0.77
25.390,-0.29,-0.71,-0.00,0.77
25.400,-0.11,-0.65,-0.01,0.66
25.410,0.05,-0.53,-0.03,0.54
25.420,0.18,-0.35,-0.05,0.39
25.430,0.31,-0.17,-0.10,0.37
25.440,0.39,0.04,-0.17,0.43
25.450,0.47,0.28,-0.16,0.57
25.460,0.61,0.51,0.01,0.79
25.470,0.68,0.60,0.25,0.94
25.480,0.85,0.58,0.48,1.14
25.490,1.02,0.51,0.58,1.28
25.500,1.22,0.38,0.63,1.42
25.510,1.51,0.23,0.62,1.64
25.520,1.84,0.08,0.50,1.91
25.530,2.21,-0.09,0.38,2.24
25.540,2.66,-0.21,0.12,2.68
25.550,3.17,-0.30,-0.09,3.19
25.560,3.52,-0.36,-0.13,3.54
25.571,3.57,-0.49,0.04,3.60
25.581,3.41,-0.67,0.30,3.49
25.591,3.40,-0.63,0.43,3.49
25.601,3.83,-0.02,0.41,3.85
25.611,4.20,0.84,-0.01,4.28
25.621,4.33,1.84,-0.53,4.73
25.631,4.30,2.54,-1.32,5.16
25.641,3.83,2.73,-2.04,5.12
25.651,2.91,2.48,-2.20,4.41
25.661,1.96,1.67,-2.20,3.39
25.671,1.25,0.65,-2.25,2.65
25.681,0.64,-0.07,-2.01,2.11
25.691,0.07,-0.42,-1.63,1.68
25.701,-0.37,-0.51,-1.28,1.43
25.711,-0.71,-0.34,-0.96,1.24
25.721,-1.10,-0.02,-0.84,1.39
25.731,-1.48,0.30,-0.83,1.73
25.741,-1.77,0.57,-0.83,2.04
25.751,-1.96,0.73,-0.86,2.27
25.761,-2.16,0.71,-0.82,2.41
25.771,-2.42,0.47,-0.76,2.58
25.781,-2.57,0.08,-0.78,2.68
25.791,-2.53,-0.30,-0.75,2.65
25.801,-2.42,-0.57,-0.68,2.58
25.811,-2.52,-0.69,-0.73,2.72
25.821,-2.64,-0.56,-0.82,2.82
25.831,-2.68,-0.26,-0.82,2.82
25.841,-2.74,-0.02,-0.81,2.86
25.851,-2.65,0.19,-0.88,2.80
25.861,-2.51,0.29,-0.88,2.68
25.871,-2.39,0.41,-0.85,2.57
25.881,-2.30,0.50,-0.78,2.48
25.891,-2.37,0.47,-0.72,2.52
25.901,-2.33,0.44,-0.72,2.48
25.911,-2.22,0.48,-0.72,2.38
25.921,-2.11,0.46,-0.66,2.26
25.931,-1.97,0.52,-0.58,2.12
25.941,-1.73,0.62,-0.45,1.90
25.951,-1.44,0.66,-0.32,1.62
25.961,-1.17,0.62,-0.26,1.35
25.971,-1.00,0.58,-0.17,1.17
25.981,-0.89,0.53,-0.05,1.04
25.991,-0.84,0.42,0.01,0.94
26.001,-0.82,0.24,0.08,0.86
26.011,-0.79,0.08,0.11,0.80
26.021,-0.74,-0.03,0.11,0.75
26.031,-0.68,-0.04,0.03,0.69
26.041,-0.60,0.08,-0.01,0.61
26.051,-0.52,0.24,0.03,0.57
26.061,-0.39,0.34,0.03,0.52
26.071,-0.28,0.40,0.06,0.49
26.081,-0.19,0.44,0.13,0.50
26.091,-0.14,0.37,0.19,0.44
26.101,-0.09,0.28,0.24,0.38
26.111,-0.14,0.19,0.29,0.38
26.121,-0.02,0.08,0.34,0.35
26.131,-0.42,0.03,0.36,0.55
26.141,-0.57,0.20,0.51,0.79
26.151,-0.52,0.26,0.58,0.82
26.161,-0.44,0.32,0.58,0.79
26.171,-0.61,0.19,0.54,0.84
26.181,-0.55,0.10,0.59,0.81
26.191,-0.40,0.02,0.55,0.69
26.201,-0.18,-0.03,0.46,0.49
26.211,-0.14,-0.05,0.42,0.44
26.221,0.00,-0.01,0.48,0.48
26.231,0.29,0.02,0.50,0.57
26.241,0.48,0.07,0.48,0.68
26.251,0.55,0.15,0.56,0.80
26.261,0.54,0.15,0.64,0.85
26.271,0.47,0.11,0.80,0.94
26.281,0.43,-0.03,0.82,0.93
26.291,0.48,0.03,0.79,0.93
26.301,0.45,0.07,1.40,1.48
26.311,0.71,-0.07,1.61,1.76
26.321,1.39,-0.09,0.77,1.59
26.331,2.36,0.07,0.28,2.38
26.341,3.48,0.33,-0.03,3.50
26.351,4.48,0.80,-0.85,4.63
26.361,4.99,1.61,-0.67,5.29
26.371,4.81,2.20,0.14,5.29
26.381,4.52,2.45,0.36,5.16
26.391,4.17,2.26,0.30,4.75
26.401,3.41,1.45,0.24,3.71
26.411,2.52,0.57,0.20,2.59
26.421,1.47,-0.07,-0.25,1.50
26.431,0.65,-0.28,-0.75,1.03
26.441,0.09,-0.14,-1.06,1.07
26.451,-0.32,0.31,-1.29,1.36
26.461,-0.69,0.89,-1.53,1.90
26.471,-0.99,1.37,-1.88,2.53
26.481,-1.03,1.58,-2.19,2.89
26.491,-0.77,1.57,-2.43,2.99
26.501,-0.28,1.44,-2.48,2.88
26.511,0.31,1.23,-2.39,2.71
26.521,0.86,0.88,-2.31,2.62
26.531,1.07,0.52,-2.22,2.52
26.541,0.93,0.27,-2.01,2.23
26.551,0.32,0.12,-1.83,1.87
26.561,-0.47,0.10,-1.66,1.73
26.571,-1.29,0.19,-1.51,2.00
26.581,-1.99,0.29,-1.38,2.44
26.591,-2.36,0.31,-1.26,2.69
26.602,-2.54,0.36,-1.25,2.85
26.611,-2.60,0.43,-1.21,2.90
26.626,-2.70,0.41,-1.16,2.96
26.634,-2.76,0.34,-1.12,3.00
26.641,-2.85,0.22,-1.07,3.05
26.651,-2.78,0.11,-1.02,2.97
26.661,-2.68,-0.02,-0.95,2.84
26.671,-2.59,-0.13,-0.95,2.76
26.681,-2.51,-0.23,-0.95,2.69
26.691,-2.49,-0.34,-1.01,2.71
26.701,-2.38,-0.42,-0.96,2.60
26.711,-2.15,-0.40,-0.97,2.39
26.721,-1.90,-0.36,-0.99,2.17
26.731,-1.60,-0.28,-0.95,1.88
26.741,-1.32,-0.15,-0.83,1.57
26.751,-1.17,-0.02,-0.74,1.38
26.761,-1.07,0.08,-0.66,1.25
26.772,-0.96,0.12,-0.60,1.13
26.782,-0.87,0.09,-0.60,1.06
26.792,-0.75,0.08,-0.60,0.96
26.802,-0.64,0.05,-0.61,0.89
26.812,-0.47,-0.04,-0.54,0.72
26.822,-0.30,-0.17,-0.42,0.54
26.832,-0.10,-0.31,-0.35,0.48
26.842,0.03,-0.39,-0.29,0.49
26.852,-0.03,-0.36,-0.22,0.42
26.862,-0.17,-0.36,-0.14,0.42
26.872,-0.26,-0.35,-0.09,0.44
26.882,-0.35,-0.33,-0.07,0.48
26.892,-0.35,-0.29,0.01,0.46
26.901,-0.35,-0.41,0.04,0.54
26.912,-0.32,-0.57,0.04,0.66
26.922,-0.26,-0.70,0.02,0.74
26.932,-0.22,-0.74,0.07,0.78
26.942,-0.23,-0.75,0.10,0.79
26.952,-0.23,-0.79,0.00,0.82
26.962,-0.34,-0.77,-0.11,0.85
26.972,-0.44,-0.73,-0.18,0.87
26.982,-0.38,-0.66,-0.25,0.80
26.992,-0.22,-0.54,-0.25,0.63
27.002,-0.08,-0.38,-0.15,0.42
27.012,0.07,-0.24,-0.08,0.26
27.022,0.23,-0.12,0.08,0.27
27.032,0.28,-0.08,0.25,0.38
27.042,0.32,-0.10,0.37,0.50
27.052,0.31,-0.16,0.40,0.53
27.062,0.28,-0.23,0.38,0.53
27.072,0.18,-0.23,0.45,0.54
27.082,0.16,-0.13,0.46,0.50
27.092,0.28,0.05,0.23,0.37
27.102,0.42,0.22,0.02,0.47
27.112,0.45,0.34,-0.06,0.57
27.122,0.61,0.42,0.00,0.74
27.132,0.95,0.30,-0.07,0.99
27.142,1.49,0.04,-0.41,1.55
27.152,2.04,-0.24,-0.61,2.15
27.162,2.43,-0.70,-0.71,2.62
27.172,2.70,-1.01,-0.77,2.98
27.182,3.01,-1.14,-0.81,3.32
27.192,3.59,-1.10,-0.84,3.85
27.202,4.29,-0.69,-0.86,4.43
27.212,4.77,-0.05,-0.84,4.84
27.222,4.83,0.79,-1.00,5.00
27.232,4.50,1.57,-1.14,4.90
27.242,4.10,2.07,-1.32,4.78
27.252,3.73,2.44,-1.52,4.71
27.262,3.11,2.45,-1.66,4.29
27.272,2.03,2.00,-1.58,3.27
27.282,0.91,1.35,-1.48,2.20
27.292,0.11,0.75,-1.36,1.56
27.302,-0.40,0.30,-1.22,1.32
27.312,-0.67,0.08,-1.20,1.38
27.322,-0.85,0.12,-1.26,1.53
27.332,-0.89,0.39,-1.20,1.54
27.342,-0.77,0.74,-1.16,1.58
27.352,-0.71,1.14,-1.24,1.83
27.362,-0.85,1.52,-1.25,2.15
27.372,-1.05,1.77,-1.28,2.42
27.382,-1.20,1.81,-1.32,2.54
27.392,-1.43,1.66,-1.25,2.52
27.402,-1.81,1.45,-1.19,2.60
27.412,-2.15,1.17,-1.15,2.70
27.422,-2.45,0.89,-1.12,2.84
27.432,-2.62,0.62,-1.17,2.94
27.442,-2.66,0.41,-1.16,2.93
27.452,-2.57,0.26,-1.09,2.81
27.462,-2.53,0.17,-1.07,2.76
27.472,-2.42,0.08,-0.98,2.62
27.482,-2.28,0.04,-0.93,2.46
27.492,-2.10,0.02,-0.82,2.26
27.502,-1.91,0.07,-0.73,2.05
27.512,-1.74,0.22,-0.70,1.89
27.522,-1.66,0.41,-0.65,1.83
27.532,-1.65,0.59,-0.62,1.86
27.542,-1.51,0.66,-0.64,1.77
27.552,-1.26,0.62,-0.61,1.53
27.562,-1.02,0.59,-0.55,1.30
27.572,-0.76,0.53,-0.56,1.08
27.582,-0.65,0.49,-0.54,0.97
27.592,-0.67,0.52,-0.47,0.97
27.602,-0.73,0.57,-0.37,0.99
27.612,-0.77,0.54,-0.27,0.98
27.622,-0.75,0.43,-0.21,0.89
27.632,-0.68,0.33,-0.20,0.78
27.642,-0.59,0.29,-0.16,0.67
27.652,-0.45,0.29,-0.13,0.55
27.662,-0.35,0.29,-0.03,0.46
27.672,-0.39,0.31,0.02,0.50
27.682,-0.51,0.35,0.06,0.62
27.692,-0.68,0.35,0.04,0.77
27.702,-0.75,0.29,0.06,0.80
27.712,-0.81,0.19,0.07,0.83
27.722,-0.86,0.12,0.10,0.88
27.732,-0.84,0.11,0.12,0.86
27.742,-0.78,0.12,0.11,0.79
27.752,-0.74,0.18,0.15,0.78
27.762,-0.72,0.25,0.17,0.78
27.772,-0.60,0.36,0.21,0.73
27.782,-0.52,0.43,0.21,0.71
27.792,-0.51,0.46,0.20,0.72
27.802,-0.60,0.49,0.21,0.80
27.812,-0.80,0.58,0.26,1.02
27.822,-1.01,0.50,0.42,1.20
27.832,-1.05,0.35,0.42,1.18
27.842,-0.93,0.40,0.44,1.10
27.852,-0.86,0.42,0.45,1.06
27.862,-0.60,0.35,0.50,0.86
27.872,-0.45,0.36,0.58,0.82
27.882,-0.31,0.40,0.76,0.92
27.892,-0.29,0.25,0.99,1.06
27.902,-0.29,0.04,1.11,1.15
27.912,-0.30,-0.06,1.22,1.26
27.922,-0.28,-0.09,1.30,1.33
27.932,-0.33,-0.09,1.29,1.34
27.942,-0.44,-0.05,1.27,1.34
27.952,-0.52,-0.03,1.28,1.38
27.962,-0.33,-0.06,1.22,1.26
27.972,0.04,-0.08,1.10,1.10
27.982,0.49,0.03,0.86,0.99
27.992,0.80,0.33,0.81,1.18
28.003,0.90,0.54,1.02,1.47
28.013,0.96,0.53,0.96,1.46
28.023,1.31,0.38,0.66,1.52
28.032,1.92,0.25,0.48,2.00
28.043,2.70,0.17,0.37,2.73
28.052,3.26,0.26,0.00,3.27
28.063,3.32,0.71,-0.05,3.40
28.073,3.07,1.24,0.14,3.31
28.082,3.22,1.83,0.45,3.73
28.093,3.72,2.48,0.75,4.53
28.103,3.93,2.74,0.57,4.82
28.113,3.76,2.49,0.33,4.52
28.123,3.30,1.85,0.32,3.79
28.133,2.45,1.15,-0.08,2.71
28.143,1.73,0.78,-0.37,1.94
28.153,1.15,0.66,-0.46,1.40
28.163,0.63,0.68,-0.70,1.16
28.173,0.25,0.73,-1.07,1.32
28.183,-0.11,0.68,-1.54,1.69
28.193,-0.32,0.59,-1.98,2.09
28.203,-0.50,0.56,-2.31,2.43
28.213,-0.64,0.59,-2.46,2.61
28.223,-0.70,0.66,-2.46,2.64
28.233,-0.53,0.74,-2.38,2.55
28.243,-0.30,0.63,-2.29,2.39
28.253,-0.18,0.40,-2.24,2.29
28.263,-0.20,0.15,-2.17,2.18
28.273,-0.36,0.01,-2.06,2.09
28.283,-0.56,-0.02,-1.94,2.02
28.293,-0.83,0.00,-1.80,1.98
28.303,-1.14,-0.02,-1.69,2.04
28.313,-1.29,-0.01,-1.65,2.10
28.323,-1.38,-0.01,-1.67,2.17
28.333,-1.43,0.09,-1.60,2.15
28.343,-1.44,0.22,-1.53,2.11
28.353,-1.52,0.38,-1.33,2.06
28.363,-1.61,0.45,-1.14,2.03
28.373,-1.67,0.42,-1.02,2.00
28.383,-1.69,0.28,-1.04,2.01
28.393,-1.78,0.12,-1.10,2.09
28.403,-1.99,-0.08,-1.12,2.29
28.413,-2.09,-0.25,-1.08,2.37
28.423,-2.06,-0.44,-1.05,2.36
28.433,-1.92,-0.48,-0.99,2.22
28.443,-1.74,-0.41,-1.03,2.07
28.453,-1.65,-0.27,-1.16,2.04
28.463,-1.65,-0.15,-1.19,2.04
28.473,-1.60,-0.02,-1.20,2.00
28.483,-1.50,0.09,-1.20,1.92
28.493,-1.41,0.10,-1.19,1.85
28.503,-1.35,0.02,-1.14,1.77
28.513,-1.33,-0.10,-1.10,1.73
28.523,-1.19,-0.26,-1.04,1.60
28.533,-0.96,-0.39,-1.03,1.46
28.543,-0.68,-0.45,-0.95,1.25
28.553,-0.42,-0.46,-0.86,1.06
28.563,-0.31,-0.44,-0.84,1.00
28.573,-0.24,-0.36,-0.77,0.88
28.583,-0.27,-0.25,-0.65,0.74
28.593,-0.32,-0.25,-0.54,0.67
28.603,-0.38,-0.29,-0.51,0.70
28.613,-0.40,-0.37,-0.49,0.73
28.623,-0.46,-0.43,-0.40,0.74
28.633,-0.44,-0.51,-0.31,0.74
28.643,-0.35,-0.56,-0.29,0.72
28.653,-0.33,-0.49,-0.29,0.66
28.663,-0.32,-0.38,-0.28,0.57
28.673,-0.24,-0.36,-0.23,0.49
28.683,-0.18,-0.37,-0.22,0.46
28.693,-0.10,-0.33,-0.18,0.39
28.703,-0.08,-0.37,-0.21,0.43
28.713,-0.11,-0.42,-0.26,0.51
28.723,-0.16,-0.49,-0.26,0.58
28.733,-0.26,-0.50,-0.30,0.63
28.743,-0.31,-0.48,-0.33,0.66
28.753,-0.27,-0.44,-0.31,0.61
28.763,-0.15,-0.44,-0.26,0.53
28.773,-0.02,-0.31,-0.20,0.37
28.783,0.11,-0.23,-0.10,0.27
28.793,0.15,-0.16,-0.04,0.22
28.803,0.16,-0.12,0.07,0.21
28.813,0.16,-0.13,0.21,0.30
28.823,0.16,-0.22,0.36,0.45
28.833,0.11,-0.31,0.54,0.63
28.843,0.02,-0.47,0.66,0.81
28.853,-0.06,-0.62,0.75,0.98
28.863,-0.03,-0.72,0.79,1.07
28.873,0.10,-0.70,0.77,1.05
28.883,0.32,-0.59,0.69,0.96
28.893,0.70,-0.44,0.52,0.98
28.903,1.28,-0.29,0.10,1.31
28.913,2.00,-0.04,-0.29,2.03
28.923,2.72,0.30,-0.48,2.78
28.933,3.31,0.61,-0.50,3.41
28.943,3.68,0.77,-0.37,3.78
28.953,3.88,0.84,-0.08,3.97
28.963,4.14,0.82,0.33,4.23
28.973,4.63,0.95,0.60,4.76
28.983,5.18,1.27,0.69,5.38
28.993,5.43,1.22,0.46,5.58
29.003,5.35,0.93,-0.23,5.43
29.013,4.76,0.72,-0.81,4.88
29.023,3.81,0.60,-1.21,4.04
29.033,2.89,0.50,-1.45,3.27
29.043,1.82,0.38,-1.65,2.48
29.053,0.78,0.16,-1.76,1.93
29.063,-0.02,-0.14,-1.81,1.81
29.073,-0.35,-0.35,-1.80,1.86
29.083,-0.36,-0.26,-1.58,1.64
29.093,-0.18,0.08,-1.36,1.37
29.103,0.15,0.50,-1.25,1.36
29.113,0.35,0.90,-1.16,1.50
29.123,0.30,1.17,-1.13,1.65
29.133,0.11,1.38,-1.13,1.78
29.143,-0.19,1.45,-1.08,1.82
29.154,-0.60,1.38,-1.10,1.86
29.163,-0.94,1.17,-1.13,1.88
29.173,-1.21,0.93,-1.24,1.97
29.183,-1.52,0.73,-1.39,2.19
29.193,-1.84,0.62,-1.51,2.46
29.203,-2.09,0.61,-1.55,2.67
29.214,-2.26,0.69,-1.70,2.91
29.223,-2.37,0.84,-1.82,3.11
29.233,-2.57,1.04,-1.76,3.29
29.244,-2.90,1.27,-1.77,3.63
29.254,-3.24,1.37,-1.78,3.94
29.263,-3.51,1.31,-1.77,4.15
29.273,-3.75,1.21,-1.75,4.31
29.284,-3.82,1.09,-1.80,4.36
29.293,-3.83,0.90,-1.79,4.32
29.304,-3.81,0.65,-1.75,4.24
29.314,-3.69,0.45,-1.70,4.09
29.323,-3.44,0.28,-1.67,3.84
29.334,-3.00,0.24,-1.57,3.39
29.344,-2.48,0.25,-1.45,2.89
29.354,-1.98,0.34,-1.35,2.42
29.364,-1.58,0.54,-1.27,2.10
29.374,-1.21,0.74,-1.17,1.84
29.384,-0.84,0.93,-1.07,1.65
29.394,-0.42,1.02,-0.92,1.44
29.404,-0.03,1.01,-0.81,1.30
29.414,0.21,0.91,-0.74,1.19
29.424,0.33,0.85,-0.60,1.09
29.434,0.38,0.78,-0.45,0.98
29.444,0.34,0.68,-0.28,0.81
29.454,0.29,0.57,-0.22,0.67
29.464,0.19,0.47,-0.17,0.53
29.474,0.08,0.35,-0.08,0.36
29.484,0.00,0.24,0.02,0.24
29.494,-0.05,0.15,0.01,0.16
29.504,-0.04,0.09,0.02,0.10
29.514,-0.16,0.03,0.02,0.17
29.524,-0.33,-0.04,0.04,0.34
29.534,-0.56,-0.04,0.07,0.57
29.544,-0.98,-0.14,0.14,1.00
29.554,-0.76,-0.14,0.06,0.77
29.564,-0.42,0.07,-0.05,0.43
29.574,-0.51,0.10,-0.01,0.52
29.584,-0.28,0.05,0.03,0.28
29.594,0.02,0.09,0.01,0.09
29.604,0.08,0.16,-0.02,0.18
29.614,0.12,0.14,0.00,0.19
29.624,-0.00,0.11,0.03,0.12
29.634,-0.24,0.15,0.10,0.30
29.644,-0.36,0.17,0.16,0.43
29.654,-0.49,0.11,0.24,0.56
29.664,-0.68,0.05,0.30,0.75
29.674,-0.76,0.03,0.32,0.82
29.684,-0.70,0.05,0.31,0.76
29.694,-0.69,0.04,0.31,0.76
29.704,-0.78,0.03,0.34,0.85
29.714,-0.85,0.02,0.32,0.91
29.724,-0.91,0.11,0.32,0.97
29.734,-0.76,0.33,0.39,0.91
29.744,-0.77,0.38,0.49,0.99
29.754,-0.79,0.42,0.56,1.05
29.764,-0.62,0.54,0.59,1.01
29.774,-0.37,0.66,0.58,0.95
29.784,-0.27,0.68,0.59,0.94
29.794,-0.34,0.62,0.63,0.94
29.804,-0.37,0.52,0.61,0.89
29.814,-0.36,0.46,0.59,0.83
29.824,-0.38,0.49,0.52,0.81
29.834,-0.41,0.71,0.54,0.98
29.844,-0.53,0.84,0.71,1.22
29.854,-0.60,0.88,0.59,1.22
29.864,-0.55,0.95,0.36,1.16
29.874,-0.39,1.01,0.25,1.11
29.884,-0.09,1.09,0.32,1.14
29.894,0.35,1.14,0.52,1.30
29.904,0.87,1.01,0.79,1.55
29.914,1.21,0.64,1.10,1.76
29.924,1.47,0.24,1.25,1.95
29.934,1.71,-0.11,1.22,2.10
29.944,1.97,-0.37,1.11,2.29
29.954,2.22,-0.41,0.99,2.46
29.964,2.31,-0.35,0.83,2.48
29.974,2.34,-0.17,0.53,2.41
29.984,2.54,0.16,0.21,2.55
29.994,3.04,0.63,0.08,3.10
30.004,3.37,1.04,-0.35,3.54
30.014,3.30,1.35,-0.51,3.60
30.024,3.00,1.57,-0.29,3.40
30.034,2.20,1.64,-0.10,2.74
30.044,1.41,1.78,0.25,2.29
30.054,1.09,1.98,0.56,2.33
30.064,1.38,2.23,0.62,2.69
30.074,1.96,2.39,0.52,3.13
30.084,2.48,2.07,0.09,3.23
30.094,2.71,1.36,-0.40,3.06
30.104,2.60,0.68,-0.81,2.81
30.114,2.18,0.15,-1.12,2.45
30.124,1.68,-0.26,-1.44,2.23
30.134,1.08,-0.60,-1.65,2.06
30.144,0.47,-0.92,-1.83,2.10
30.154,0.08,-1.04,-2.05,2.30
30.164,-0.07,-0.82,-2.11,2.27
30.174,-0.16,-0.41,-2.09,2.13
30.184,-0.05,0.09,-2.03,2.03
30.194,0.08,0.55,-1.98,2.05
30.204,0.25,0.85,-1.94,2.13
30.214,0.36,0.87,-1.85,2.07
30.224,0.25,0.71,-1.70,1.86
30.234,-0.03,0.45,-1.48,1.55
30.244,-0.46,0.17,-1.33,1.42
30.254,-0.83,-0.09,-1.19,1.46
30.264,-1.12,-0.29,-1.14,1.63
30.274,-1.41,-0.42,-1.13,1.85
30.284,-1.70,-0.43,-1.04,2.04
30.294,-2.03,-0.30,-0.94,2.25
30.304,-2.31,-0.10,-0.86,2.46
30.314,-2.47,0.08,-0.87,2.62
30.324,-2.61,0.34,-0.91,2.78
30.334,-2.70,0.51,-0.87,2.89
30.344,-2.73,0.47,-0.84,2.90
30.354,-2.75,0.22,-0.93,2.91
30.364,-2.73,-0.08,-1.07,2.93
30.374,-2.76,-0.28,-1.13,2.99
30.384,-2.74,-0.41,-1.02,2.95
30.394,-2.69,-0.50,-0.89,2.88
30.405,-2.48,-0.47,-0.75,2.63
30.414,-2.29,-0.30,-0.63,2.40
30.425,-2.14,-0.14,-0.64,2.24
30.434,-1.86,-0.11,-0.65,1.97
30.445,-1.57,-0.20,-0.71,1.74
30.454,-1.30,-0.36,-0.81,1.58
30.465,-1.01,-0.49,-0.83,1.40
30.475,-0.78,-0.57,-0.84,1.28
30.485,-0.57,-0.59,-0.87,1.19
30.495,-0.39,-0.56,-0.85,1.09
30.505,-0.24,-0.44,-0.79,0.94
30.515,-0.25,-0.27,-0.79,0.87
30.525,-0.34,-0.09,-0.78,0.86
30.535,-0.37,-0.08,-0.75,0.84
30.545,-0.32,-0.17,-0.76,0.84
30.555,-0.42,-0.23,-0.74,0.88
30.565,-0.56,-0.29,-0.65,0.91
30.575,-0.49,-0.38,-0.53,0.82
30.585,-0.38,-0.42,-0.42,0.71
30.595,-0.34,-0.34,-0.32,0.57
30.605,-0.31,-0.25,-0.32,0.51
30.615,-0.22,-0.15,-0.48,0.55
30.625,-0.09,-0.07,-0.65,0.66
30.635,0.02,-0.02,-0.79,0.79
30.645,0.12,-0.00,-0.92,0.92
30.655,0.15,0.01,-0.91,0.92
30.665,0.08,0.04,-0.83,0.84
30.675,-0.03,0.04,-0.70,0.70
30.685,-0.14,-0.04,-0.65,0.67
30.695,-0.30,-0.15,-0.64,0.72
30.705,-0.40,-0.27,-0.56,0.74
30.715,-0.37,-0.37,-0.54,0.75
30.725,-0.24,-0.41,-0.51,0.70
30.735,-0.01,-0.46,-0.46,0.65
30.745,0.05,-0.48,-0.43,0.64
30.755,0.01,-0.50,-0.47,0.68
30.765,-0.01,-0.47,-0.48,0.68
30.775,0.02,-0.46,-0.48,0.66
30.785,0.12,-0.38,-0.44,0.59
30.795,0.14,-0.27,-0.36,0.48
30.805,0.13,-0.17,-0.30,0.37
30.815,0.06,-0.13,-0.30,0.33
30.825,0.01,-0.16,-0.30,0.34
30.835,0.07,-0.17,-0.27,0.33
30.845,0.11,-0.16,-0.23,0.30
30.855,0.23,-0.09,-0.18,0.31
30.865,0.27,-0.04,-0.12,0.30
30.875,0.19,-0.07,-0.10,0.22
30.885,0.16,-0.12,-0.04,0.20
30.895,0.19,-0.17,-0.00,0.25
30.905,0.17,-0.17,0.02,0.24
30.915,0.21,-0.16,0.06,0.27
30.925,0.29,-0.13,0.05,0.32
30.935,0.43,-0.11,-0.03,0.44
30.945,0.68,-0.13,-0.12,0.70
30.955,0.94,-0.18,-0.11,0.97
30.965,1.17,-0.14,0.05,1.18
30.975,1.24,-0.13,0.31,1.28
30.985,1.41,-0.14,0.46,1.49
30.995,1.80,-0.06,0.55,1.88
31.005,2.28,0.05,0.75,2.40
31.015,2.74,0.05,0.84,2.86
31.025,3.12,-0.10,0.95,3.26
31.035,3.56,-0.36,0.97,3.71
31.045,4.04,-0.66,0.78,4.17
31.055,4.52,-0.77,0.41,4.60
31.065,4.83,-0.52,-0.11,4.86
31.075,4.77,-0.02,-0.50,4.79
31.085,4.26,0.65,-0.71,4.37
31.095,3.59,1.25,-0.85,3.89
31.105,2.87,1.58,-1.22,3.49
31.115,2.22,1.68,-1.63,3.23
31.125,1.58,1.69,-1.77,2.91
31.135,1.11,1.58,-1.69,2.56
31.145,1.14,1.24,-1.50,2.26
31.155,1.37,0.81,-1.33,2.07
31.165,1.44,0.51,-1.19,1.93
31.175,1.29,0.49,-0.96,1.68
31.185,0.81,0.66,-0.91,1.39
31.195,0.22,0.94,-0.98,1.38
31.205,-0.33,1.22,-1.05,1.64
31.215,-0.77,1.38,-1.22,2.00
31.225,-1.15,1.50,-1.29,2.29
31.235,-1.55,1.47,-1.46,2.59
31.245,-1.96,1.42,-1.64,2.93
31.255,-2.46,1.31,-1.67,3.25
31.265,-2.85,1.13,-1.63,3.48
31.275,-3.19,0.96,-1.51,3.66
31.285,-3.46,0.72,-1.44,3.82
31.295,-3.68,0.54,-1.43,3.98
31.305,-3.86,0.45,-1.41,4.13
31.315,-3.91,0.46,-1.50,4.21
31.325,-3.93,0.62,-1.54,4.27
31.335,-3.78,0.81,-1.50,4.15
31.345,-3.58,0.89,-1.43,3.95
31.355,-3.26,0.86,-1.48,3.68
31.365,-2.90,0.81,-1.51,3.36
31.375,-2.54,0.70,-1.50,3.03
31.385,-2.28,0.49,-1.45,2.74
31.395,-1.93,0.32,-1.38,2.39
31.405,-1.66,0.13,-1.16,2.03
31.415,-1.42,-0.11,-0.93,1.70
31.425,-1.19,-0.37,-0.87,1.52
31.435,-0.93,-0.44,-0.78,1.29
31.445,-0.74,-0.24,-0.67,1.03
31.455,-0.66,0.07,-0.47,0.82
31.465,-0.51,0.43,-0.31,0.73
31.475,-0.30,0.71,-0.27,0.82
31.485,-0.12,0.82,-0.35,0.90
31.495,-0.01,0.80,-0.42,0.90
31.505,0.02,0.67,-0.44,0.80
31.515,-0.11,0.46,-0.44,0.65
31.525,-0.25,0.27,-0.37,0.53
31.535,-0.33,0.07,-0.32,0.46
31.545,-0.37,-0.09,-0.34,0.51
31.556,-0.40,-0.10,-0.30,0.51
31.566,-0.45,0.01,-0.21,0.50
31.576,-0.47,0.21,-0.18,0.55
31.585,-0.46,0.39,-0.18,0.63
31.596,-0.49,0.49,-0.19,0.72
31.606,-0.47,0.54,-0.19,0.74
31.615,-0.38,0.55,-0.21,0.70
31.626,-0.30,0.57,-0.26,0.69
31.636,-0.24,0.58,-0.26,0.68
31.645,-0.27,0.55,-0.32,0.69
31.656,-0.34,0.55,-0.31,0.72
31.666,-0.44,0.50,-0.27,0.72
31.676,-0.48,0.52,-0.20,0.74
31.686,-0.37,0.44,-0.12,0.58
31.696,-0.50,0.43,-0.08,0.66
31.706,-0.52,0.58,0.06,0.79
31.715,-0.70,0.63,0.15,0.96
31.726,-0.97,0.53,0.24,1.13
31.736,-1.09,0.39,0.26,1.19
31.746,-1.04,0.22,0.31,1.11
31.756,-0.87,0.07,0.31,0.92
31.765,-0.74,0.06,0.29,0.80
31.776,-0.65,0.15,0.36,0.76
31.786,-0.60,0.20,0.46,0.79
31.796,-0.66,0.20,0.48,0.84
31.806,-0.72,0.12,0.57,0.93
31.816,-0.54,-0.02,0.63,0.83
31.826,-0.35,-0.21,0.58,0.71
31.836,-0.27,-0.30,0.53,0.66
31.846,-0.33,-0.23,0.47,0.61
31.856,-0.45,-0.10,0.44,0.64
31.866,-0.57,-0.04,0.42,0.71
31.876,-0.53,-0.00,0.47,0.71
31.886,-0.24,0.00,0.39,0.46
31.896,-0.21,-0.11,0.60,0.65
31.906,0.09,0.01,0.51,0.52
31.916,-0.13,0.00,0.47,0.49
31.926,-0.46,0.13,0.67,0.82
31.936,-0.54,0.38,0.53,0.85
31.946,-0.52,0.52,0.32,0.80
31.956,-0.22,0.86,-0.29,0.94
31.966,-0.14,1.28,-0.42,1.35
31.976,-0.31,1.32,-0.11,1.37
31.986,-0.11,1.20,0.03,1.20
31.996,0.43,0.95,0.16,1.06
32.006,1.04,0.60,0.33,1.25
32.016,1.61,0.32,0.42,1.69
32.026,1.83,0.19,0.70,1.97
32.036,1.60,0.09,1.07,1.93
32.046,1.18,-0.12,1.31,1.76
32.056,0.63,-0.29,1.31,1.48
32.066,0.10,-0.25,1.31,1.34
32.076,-0.12,0.14,1.36,1.37
32.086,0.01,0.68,1.27,1.44
32.096,0.42,1.19,1.04,1.64
32.106,1.00,1.56,0.78,2.01
32.116,1.80,1.75,0.52,2.56
32.126,2.73,1.84,0.26,3.30
32.136,3.70,1.83,0.03,4.13
32.146,4.37,1.67,-0.15,4.68
32.156,4.91,1.55,-0.10,5.15
32.166,4.98,1.36,0.04,5.16
32.176,4.33,1.01,0.05,4.44
32.186,3.24,0.49,0.26,3.29
32.196,2.29,0.03,0.31,2.31
32.206,1.46,-0.10,0.03,1.46
32.216,0.60,0.03,-0.29,0.67
32.226,-0.09,0.28,-0.64,0.70
32.236,-0.48,0.49,-1.17,1.36
32.246,-0.60,0.77,-1.60,1.87
32.256,-0.54,0.96,-1.87,2.18
32.266,-0.32,1.00,-2.09,2.34
32.276,-0.01,0.87,-2.14,2.31
32.286,0.27,0.60,-2.13,2.23
32.296,0.44,0.24,-2.15,2.21
32.306,0.48,-0.06,-2.10,2.15
32.316,0.44,-0.24,-1.97,2.03
32.326,0.23,-0.29,-1.86,1.89
32.336,-0.07,-0.23,-1.61,1.63
32.346,-0.41,-0.12,-1.48,1.54
32.356,-0.85,-0.05,-1.44,1.67
32.366,-1.22,-0.03,-1.36,1.83
32.376,-1.53,-0.04,-1.34,2.03
32.386,-1.65,-0.04,-1.36,2.14
32.396,-1.68,-0.07,-1.37,2.17
32.406,-1.65,-0.14,-1.35,2.14
32.416,-1.53,-0.12,-1.29,2.01
32.426,-1.49,-0.09,-1.27,1.96
32.436,-1.56,-0.03,-1.24,1.99
32.446,-1.68,0.02,-1.20,2.06
32.456,-1.69,-0.00,-1.18,2.06
32.466,-1.69,-0.03,-1.16,2.04
32.476,-1.58,-0.05,-1.14,1.95
32.486,-1.59,-0.01,-1.10,1.93
32.496,-1.47,0.08,-1.01,1.78
32.506,-1.39,0.06,-0.93,1.67
32.516,-1.32,-0.01,-0.85,1.57
32.526,-1.29,-0.01,-0.70,1.47
32.536,-1.31,-0.03,-0.69,1.48
32.546,-1.28,-0.10,-0.64,1.44
32.556,-1.29,-0.23,-0.67,1.47
32.566,-1.23,-0.37,-0.58,1.41
32.576,-1.16,-0.53,-0.49,1.37
32.586,-1.11,-0.66,-0.49,1.38
32.596,-1.01,-0.58,-0.40,1.23
32.606,-0.91,-0.66,-0.54,1.25
32.616,-0.70,-0.97,-0.45,1.28
32.626,-0.57,-1.08,-0.35,1.27
32.636,-0.52,-1.02,-0.23,1.17
32.646,-0.41,-0.98,-0.20,1.08
32.656,-0.26,-1.01,-0.13,1.05
32.666,-0.13,-0.97,-0.16,0.99
32.676,-0.07,-0.91,-0.16,0.93
32.686,-0.12,-0.90,-0.15,0.92
32.696,-0.18,-0.93,-0.13,0.96
32.706,-0.22,-0.95,-0.11,0.98
32.716,-0.25,-0.82,-0.14,0.87
32.726,-0.31,-0.64,-0.15,0.73
32.736,-0.41,-0.43,-0.17,0.62
32.746,-0.51,-0.27,-0.18,0.60
