time,ax,ay,az,atotal
0.000,-0.19,0.15,-0.05,0.25
0.010,-0.18,0.01,-0.05,0.19
0.020,-0.18,-0.05,-0.04,0.19
0.030,-0.16,-0.04,0.00,0.16
0.040,-0.16,-0.00,0.02,0.16
0.050,-0.12,0.02,-0.00,0.12
0.060,-0.10,0.04,-0.00,0.11
0.070,-0.10,0.09,0.07,0.15
0.080,-0.09,0.12,0.06,0.16
0.090,-0.09,0.16,-0.02,0.18
0.100,-0.16,0.16,-0.08,0.24
0.110,-0.16,0.14,-0.08,0.23
0.120,-0.21,0.08,-0.09,0.24
0.130,-0.17,0.00,-0.13,0.21
0.140,-0.04,0.02,-0.12,0.13
0.150,0.00,0.07,-0.13,0.15
0.160,-0.02,0.08,-0.12,0.15
0.170,-0.02,0.12,-0.09,0.15
0.180,-0.07,0.14,-0.05,0.16
0.190,-0.09,0.19,-0.00,0.21
0.200,-0.17,0.19,0.05,0.26
0.210,-0.18,0.09,0.05,0.20
0.221,0.09,-0.31,-0.29,0.43
0.231,0.07,0.10,0.03,0.13
0.240,-0.24,0.12,0.22,0.34
0.250,-0.34,0.09,0.14,0.37
0.260,-0.33,0.08,0.01,0.34
0.271,-0.34,-0.27,-0.67,0.80
0.280,-0.30,-0.16,0.07,0.35
0.290,0.17,0.34,0.56,0.68
0.300,0.08,1.05,0.24,1.08
0.311,-0.24,0.92,0.07,0.95
0.320,-0.05,0.28,0.01,0.29
0.331,0.10,-0.01,-0.02,0.10
0.340,-0.10,-0.07,0.02,0.12
0.351,-0.28,-0.11,0.12,0.33
0.360,-0.34,-0.09,0.12,0.37
0.371,-0.35,0.06,0.08,0.37
0.380,-0.37,0.19,0.09,0.42
0.390,-0.28,0.25,0.09,0.39
0.400,-0.17,0.24,0.06,0.30
0.411,-0.11,0.16,0.01,0.19
0.420,-0.06,0.09,-0.01,0.10
0.431,-0.07,0.09,-0.02,0.12
0.441,-0.09,0.14,0.03,0.17
0.451,-0.12,0.18,0.07,0.23
0.461,-0.18,0.18,0.12,0.28
0.471,-0.26,0.16,0.13,0.33
0.481,-0.35,0.18,0.15,0.42
0.491,-0.43,0.18,0.17,0.50
0.501,-0.56,0.18,0.22,0.63
0.511,-0.68,0.13,0.26,0.74
0.521,-0.78,0.07,0.29,0.83
0.531,-0.80,-0.02,0.27,0.85
0.541,-0.73,-0.14,0.27,0.79
0.551,-0.68,-0.28,0.28,0.78
0.561,-0.63,-0.35,0.32,0.79
0.571,-0.65,-0.40,0.37,0.85
0.581,-0.65,-0.47,0.39,0.89
0.591,-0.60,-0.58,0.39,0.92
0.601,-0.52,-0.63,0.47,0.95
0.611,-0.42,-0.59,0.48,0.87
0.621,-0.28,-0.49,0.57,0.80
0.631,-0.12,-0.31,0.77,0.84
0.641,0.09,-0.11,0.99,1.00
0.651,0.30,0.04,1.12,1.16
0.661,0.59,0.04,1.16,1.30
0.671,0.90,-0.12,1.11,1.43
0.681,1.03,-0.30,0.89,1.40
0.691,1.01,-0.44,0.74,1.33
0.701,1.02,-0.53,0.71,1.35
0.711,0.98,-0.55,0.66,1.30
0.721,0.97,-0.55,0.61,1.27
0.731,0.96,-0.46,0.51,1.18
0.741,0.87,-0.35,0.50,1.07
0.751,0.68,-0.21,0.63,0.95
0.761,0.36,-0.01,0.77,0.85
0.771,-0.02,0.08,0.79,0.79
0.781,-0.30,0.11,0.69,0.76
0.791,-0.39,0.03,0.69,0.79
0.801,-0.41,-0.14,0.71,0.83
0.811,-0.34,-0.25,0.63,0.76
0.821,-0.15,-0.28,0.53,0.62
0.831,0.00,-0.23,0.43,0.48
0.841,0.21,-0.07,0.41,0.46
0.851,0.46,0.12,0.39,0.61
0.861,0.67,0.28,0.39,0.82
0.871,0.80,0.32,0.43,0.97
0.881,0.88,0.28,0.42,1.01
0.891,0.88,0.11,0.43,0.99
0.901,0.89,-0.16,0.41,0.99
0.911,0.85,-0.47,0.36,1.04
0.921,0.78,-0.77,0.29,1.13
0.931,0.72,-0.91,0.22,1.18
0.941,0.71,-0.90,0.13,1.15
0.951,0.65,-0.82,0.09,1.05
0.961,0.58,-0.65,0.12,0.88
0.971,0.46,-0.43,0.12,0.64
0.981,0.25,-0.22,0.16,0.36
0.991,0.04,-0.02,0.24,0.24
1.001,-0.15,0.13,0.32,0.38
1.011,-0.39,0.23,0.40,0.60
1.021,-0.52,0.25,0.47,0.74
1.031,-0.64,0.18,0.40,0.78
1.041,-0.87,0.08,0.49,1.00
1.051,-1.01,-0.01,0.57,1.16
1.061,-1.30,-0.02,0.69,1.47
1.071,-1.69,-0.04,0.92,1.93
1.081,-1.99,-0.12,1.02,2.23
1.091,-2.12,-0.19,1.03,2.37
1.101,-2.12,-0.33,1.02,2.38
1.111,-2.06,-0.51,1.07,2.37
1.121,-2.01,-0.72,1.15,2.43
1.131,-2.00,-0.95,1.22,2.53
1.141,-1.97,-1.12,1.27,2.59
1.151,-1.94,-1.19,1.31,2.62
1.161,-1.84,-1.14,1.29,2.52
1.171,-1.67,-0.96,1.20,2.27
1.181,-1.59,-0.69,1.12,2.07
1.191,-1.61,-0.38,1.07,1.97
1.201,-1.72,-0.04,1.09,2.04
1.211,-1.90,0.28,1.19,2.26
1.221,-2.02,0.52,1.32,2.47
1.231,-1.98,0.59,1.40,2.50
1.241,-1.84,0.60,1.43,2.41
1.251,-1.59,0.62,1.53,2.29
1.261,-1.32,0.67,1.51,2.11
1.272,-0.96,0.67,1.41,1.84
1.281,-0.31,0.58,1.41,1.55
1.291,0.59,0.42,1.51,1.68
1.301,1.39,0.15,1.64,2.16
1.311,2.07,-0.29,1.72,2.70
1.321,2.68,-0.88,1.85,3.37
1.331,3.17,-1.44,2.01,4.02
1.341,3.48,-1.83,2.12,4.46
1.351,3.70,-2.01,2.29,4.79
1.361,3.98,-1.93,2.63,5.14
1.371,4.23,-1.57,2.91,5.37
1.381,4.38,-1.14,3.09,5.48
1.391,4.69,-0.83,3.17,5.73
1.401,5.14,-0.76,3.05,6.02
1.411,5.11,-1.02,2.63,5.84
1.421,4.94,-1.39,2.62,5.76
1.432,5.30,-1.42,2.72,6.13
1.441,6.03,-1.39,2.44,6.65
1.452,6.82,-1.42,1.79,7.19
1.462,6.91,-1.28,1.62,7.22
1.472,6.28,-1.07,1.68,6.59
1.482,5.16,-0.84,1.37,5.40
1.491,4.12,-0.52,1.23,4.33
1.502,3.20,-0.09,1.31,3.45
1.512,2.20,0.21,0.92,2.40
1.521,1.11,0.27,0.10,1.15
1.532,0.17,0.20,-0.89,0.93
1.541,-0.51,0.10,-1.79,1.86
1.552,-1.09,-0.01,-2.60,2.82
1.562,-1.61,-0.04,-3.28,3.65
1.572,-2.02,0.15,-3.74,4.25
1.582,-2.22,0.57,-3.90,4.52
1.592,-2.12,1.18,-3.93,4.62
1.602,-1.74,1.93,-3.60,4.44
1.612,-1.30,2.59,-2.88,4.09
1.622,-1.12,2.80,-2.04,3.65
1.632,-1.15,2.56,-1.25,3.07
1.642,-1.12,2.03,-0.85,2.47
1.652,-1.03,1.36,-0.91,1.93
1.662,-0.65,0.75,-1.24,1.59
1.672,-0.69,0.22,-1.71,1.85
1.682,-0.82,0.04,-1.68,1.87
1.692,-0.69,0.22,-1.55,1.71
1.702,-0.73,0.35,-1.44,1.65
1.712,-0.52,0.45,-1.28,1.46
1.722,-0.44,0.44,-1.34,1.48
1.732,-0.54,0.34,-1.10,1.27
1.742,-0.48,0.11,-0.63,0.80
1.752,-0.59,-0.16,-0.39,0.73
1.762,-0.68,-0.26,-0.42,0.84
1.772,-0.69,-0.27,-0.43,0.85
1.782,-0.81,-0.30,-0.39,0.95
1.792,-1.02,-0.34,-0.33,1.13
1.802,-1.31,-0.32,-0.12,1.35
1.812,-1.65,-0.27,0.22,1.68
1.822,-2.03,-0.22,0.51,2.10
1.832,-2.32,-0.25,0.67,2.42
1.842,-2.40,-0.40,0.75,2.55
1.852,-2.46,-0.63,0.68,2.63
1.862,-2.56,-0.86,0.53,2.75
1.872,-2.56,-1.00,0.39,2.78
1.882,-2.66,-0.95,0.40,2.86
1.892,-2.72,-0.74,0.59,2.88
1.902,-2.64,-0.56,0.57,2.76
1.912,-2.85,-0.41,0.59,2.94
1.922,-3.06,-0.22,0.68,3.15
1.932,-3.23,-0.09,0.61,3.28
1.942,-3.30,0.03,0.45,3.33
1.952,-3.33,0.21,0.37,3.36
1.962,-3.30,0.46,0.33,3.35
1.972,-3.15,0.71,0.33,3.25
1.982,-2.85,1.01,0.40,3.05
1.992,-2.44,1.22,0.51,2.77
2.002,-2.02,1.33,0.70,2.52
2.012,-1.37,1.46,0.91,2.20
2.022,-0.71,1.34,1.05,1.84
2.032,-0.30,1.15,1.21,1.70
2.042,-0.02,1.05,1.47,1.80
2.052,0.22,0.83,1.63,1.84
2.062,0.50,0.51,1.58,1.74
2.072,0.84,0.28,1.55,1.79
2.082,1.30,0.06,1.73,2.16
2.092,1.90,-0.05,2.04,2.79
2.102,2.45,-0.00,2.46,3.47
2.112,2.88,0.03,2.88,4.07
2.122,3.20,0.03,3.24,4.55
2.132,3.45,0.00,3.51,4.93
2.142,3.77,-0.15,3.44,5.11
2.152,4.11,-0.49,2.88,5.04
2.162,3.86,-0.92,1.63,4.29
2.172,3.14,-0.81,0.39,3.27
2.182,3.14,-0.80,-0.54,3.29
2.192,3.90,-0.50,-1.36,4.16
2.202,4.82,0.48,-1.39,5.04
2.212,5.07,1.19,-0.66,5.25
2.222,4.31,1.45,-0.17,4.55
2.232,2.92,1.61,0.09,3.33
2.242,1.67,1.47,-0.39,2.26
2.252,0.74,0.84,-1.25,1.67
2.262,0.11,0.12,-1.95,1.95
2.272,-0.28,-0.33,-2.45,2.49
2.282,-0.44,-0.71,-2.86,2.98
2.292,-0.49,-1.08,-3.16,3.38
2.302,-0.49,-1.26,-3.07,3.35
2.313,-0.57,-1.30,-2.71,3.06
2.322,-0.82,-1.25,-2.27,2.72
2.332,-1.03,-1.07,-1.90,2.41
2.342,-1.19,-0.77,-1.57,2.11
2.352,-1.30,-0.56,-1.27,1.90
2.362,-1.25,-0.49,-0.97,1.65
2.372,-1.13,-0.42,-0.62,1.36
2.382,-1.09,-0.39,-0.37,1.22
2.392,-1.04,-0.46,-0.48,1.23
2.402,-0.92,-0.51,-0.72,1.28
2.413,-0.66,-0.42,-0.73,1.06
2.422,-0.35,-0.28,-0.61,0.76
2.432,-0.16,-0.15,-0.50,0.54
2.442,-0.11,-0.11,-0.39,0.42
2.452,-0.22,-0.10,-0.26,0.36
2.462,-0.49,-0.04,-0.10,0.50
2.473,-0.77,0.01,0.09,0.77
2.482,-1.11,0.02,0.29,1.15
2.493,-1.58,0.05,0.50,1.66
2.502,-1.96,0.04,0.69,2.08
2.513,-2.19,-0.02,0.79,2.32
2.523,-2.45,-0.05,0.86,2.60
2.533,-2.49,-0.18,0.85,2.64
2.542,-2.41,-0.34,0.63,2.52
2.553,-2.44,-0.35,0.54,2.52
2.563,-2.49,-0.32,0.53,2.56
2.573,-2.56,-0.41,0.39,2.62
2.583,-2.72,-0.48,0.23,2.78
2.593,-2.79,-0.44,0.23,2.83
2.603,-2.64,-0.36,0.10,2.67
2.613,-2.53,-0.33,0.15,2.56
2.623,-2.46,-0.21,0.23,2.48
2.633,-2.29,-0.01,0.21,2.30
2.643,-2.05,0.16,0.24,2.07
2.653,-1.85,0.24,0.32,1.90
2.663,-1.75,0.28,0.61,1.88
2.673,-1.69,0.28,0.79,1.89
2.683,-1.59,0.22,0.77,1.78
2.693,-1.44,0.15,0.75,1.63
2.703,-1.26,-0.02,0.69,1.44
2.713,-0.91,-0.14,0.63,1.11
2.723,-0.46,-0.22,0.63,0.81
2.733,-0.08,-0.23,0.70,0.74
2.743,0.20,-0.18,0.82,0.87
2.753,0.36,-0.21,0.79,0.90
2.763,0.57,-0.27,0.71,0.95
2.773,0.76,-0.27,0.72,1.08
2.783,1.03,-0.27,0.91,1.40
2.793,1.32,-0.36,1.14,1.78
2.803,1.66,-0.45,1.36,2.19
2.813,2.12,-0.57,1.40,2.61
2.823,2.55,-0.70,1.46,3.02
2.833,2.90,-0.82,1.72,3.47
2.843,3.07,-0.94,1.84,3.70
2.853,3.06,-0.98,1.79,3.68
2.863,3.13,-0.88,1.69,3.66
2.873,3.01,-0.75,1.04,3.27
2.883,2.65,-0.96,0.34,2.84
2.893,2.68,-1.00,0.01,2.86
2.903,3.43,-1.14,-0.58,3.66
2.913,4.50,-1.84,-1.52,5.09
2.923,5.50,-1.97,-1.43,6.02
2.933,5.34,-1.89,-1.07,5.76
2.943,4.44,-1.65,-1.26,4.90
2.953,3.71,-1.12,-1.46,4.14
2.963,3.12,-0.31,-1.45,3.46
2.973,2.37,0.67,-1.54,2.91
2.983,1.43,1.31,-2.16,2.90
2.993,0.50,1.80,-2.80,3.37
3.003,-0.36,2.16,-3.07,3.77
3.013,-1.10,2.26,-2.95,3.88
3.023,-1.75,2.01,-2.63,3.75
3.033,-2.34,1.46,-2.32,3.60
3.043,-2.79,0.85,-2.03,3.56
3.053,-2.84,0.48,-1.67,3.33
3.063,-2.39,0.36,-1.33,2.76
3.073,-1.74,0.43,-1.03,2.07
3.083,-1.16,0.68,-0.76,1.54
3.093,-0.71,0.92,-0.46,1.25
3.103,-0.40,1.04,-0.33,1.17
3.113,-0.32,1.01,-0.39,1.12
3.123,-0.24,0.91,-0.51,1.07
3.133,-0.14,0.79,-0.54,0.97
3.143,-0.09,0.64,-0.53,0.84
3.153,-0.19,0.42,-0.49,0.67
3.163,-0.44,0.17,-0.30,0.56
3.173,-0.65,0.06,-0.09,0.66
3.183,-0.82,0.01,0.19,0.84
3.193,-0.96,-0.03,0.45,1.06
3.203,-1.12,-0.11,0.60,1.28
3.213,-1.30,-0.19,0.57,1.43
3.223,-1.47,-0.20,0.47,1.56
3.233,-1.74,-0.09,0.39,1.79
3.243,-2.01,0.07,0.44,2.06
3.253,-2.22,0.21,0.61,2.31
3.263,-2.47,0.30,0.79,2.61
3.273,-2.72,0.35,0.92,2.89
3.283,-2.86,0.33,0.99,3.05
3.293,-3.00,0.18,0.86,3.13
3.303,-3.07,-0.07,0.68,3.15
3.313,-2.99,-0.23,0.65,3.07
3.323,-2.84,-0.44,0.45,2.91
3.333,-2.78,-0.57,0.15,2.84
3.343,-2.65,-0.47,0.02,2.69
3.353,-2.44,-0.17,-0.04,2.45
3.363,-2.18,0.25,0.01,2.19
3.373,-1.96,0.65,0.05,2.06
3.383,-1.87,0.97,0.12,2.11
3.393,-1.74,1.16,0.34,2.12
3.403,-1.44,1.16,0.47,1.91
3.414,-1.14,1.04,0.54,1.63
3.423,-0.83,0.89,0.67,1.39
3.433,-0.69,0.68,0.74,1.21
3.443,-0.66,0.50,0.76,1.12
3.453,-0.59,0.39,0.81,1.08
3.463,-0.36,0.30,0.81,0.94
3.474,0.04,0.27,0.88,0.92
3.483,0.55,0.30,1.09,1.25
3.493,1.03,0.31,1.30,1.69
3.503,1.40,0.45,1.61,2.18
3.513,1.75,0.68,1.97,2.72
3.523,2.18,0.93,2.11,3.17
3.533,2.66,1.05,1.89,3.43
3.543,2.98,1.18,1.74,3.65
3.553,3.07,1.23,1.87,3.80
3.563,2.98,1.15,2.03,3.79
3.573,2.89,0.86,2.13,3.69
3.583,2.82,0.40,1.93,3.44
3.593,2.31,0.09,1.35,2.68
3.603,1.95,-0.01,0.81,2.11
3.613,2.26,-0.28,0.51,2.33
3.624,3.09,-0.37,0.12,3.11
3.634,4.09,-0.21,-0.36,4.11
3.644,4.59,-0.13,-0.47,4.62
3.654,4.27,0.01,-0.52,4.30
3.664,3.29,0.29,-0.52,3.34
3.674,2.32,0.66,-0.56,2.48
3.684,1.72,0.91,-0.77,2.09
3.694,1.38,0.80,-1.26,2.03
3.703,0.90,0.45,-2.02,2.26
3.714,0.47,-0.06,-2.69,2.73
3.724,0.09,-0.64,-3.08,3.15
3.734,-0.21,-0.96,-3.12,3.27
3.744,-0.54,-1.04,-2.91,3.14
3.754,-0.98,-0.94,-2.59,2.93
3.764,-1.34,-0.66,-2.23,2.68
3.774,-1.59,-0.42,-1.93,2.54
3.784,-1.76,-0.35,-1.65,2.43
3.794,-1.76,-0.36,-1.32,2.23
3.804,-1.67,-0.41,-0.92,1.95
3.814,-1.49,-0.47,-0.59,1.67
3.824,-1.21,-0.48,-0.29,1.34
3.834,-1.06,-0.41,-0.19,1.15
3.844,-1.07,-0.35,-0.34,1.18
3.854,-0.99,-0.30,-0.65,1.22
3.864,-0.81,-0.27,-0.85,1.21
3.874,-0.61,-0.24,-0.86,1.08
3.884,-0.53,-0.17,-0.68,0.88
3.894,-0.55,-0.09,-0.49,0.74
3.904,-0.63,0.05,-0.22,0.67
3.914,-0.79,0.20,0.13,0.83
3.924,-1.02,0.28,0.52,1.18
3.934,-1.28,0.31,0.84,1.56
3.944,-1.43,0.26,1.02,1.78
3.954,-1.48,0.17,1.14,1.88
3.964,-1.49,0.03,1.26,1.95
3.974,-1.56,-0.15,1.34,2.06
3.984,-1.57,-0.28,1.37,2.10
3.994,-1.62,-0.52,1.17,2.06
4.004,-1.68,-0.70,0.92,2.04
4.014,-1.72,-0.76,0.73,2.02
4.024,-1.78,-0.74,0.44,1.98
4.034,-1.80,-0.67,0.16,1.92
4.044,-1.79,-0.50,0.04,1.86
4.054,-1.94,-0.34,0.03,1.97
4.064,-2.16,-0.19,0.06,2.17
4.074,-2.23,-0.12,0.18,2.24
4.084,-2.22,-0.06,0.35,2.25
4.094,-2.25,-0.08,0.49,2.30
4.104,-2.34,-0.13,0.62,2.42
4.114,-2.49,-0.22,0.62,2.58
4.124,-2.50,-0.32,0.56,2.58
4.134,-2.33,-0.35,0.49,2.41
4.144,-2.10,-0.37,0.39,2.17
4.154,-1.82,-0.27,0.35,1.87
4.164,-1.42,-0.09,0.42,1.48
4.174,-1.01,0.12,0.57,1.17
4.184,-0.67,0.24,0.81,1.08
4.194,-0.48,0.29,1.08,1.22
4.204,-0.40,0.31,1.25,1.34
4.214,-0.41,0.29,1.27,1.37
4.224,-0.40,0.24,1.10,1.19
4.234,-0.31,0.19,0.78,0.87
4.244,-0.10,0.08,0.41,0.43
4.254,0.23,-0.04,0.13,0.27
4.264,0.55,-0.10,0.04,0.56
4.274,0.83,-0.13,0.30,0.90
4.284,1.16,-0.08,0.61,1.32
4.294,1.48,-0.04,0.92,1.74
4.304,1.73,-0.04,1.37,2.21
4.314,1.98,-0.07,1.73,2.63
4.324,2.31,-0.16,1.89,2.99
4.334,2.75,-0.31,1.84,3.32
4.344,3.23,-0.43,1.54,3.61
4.354,3.53,-0.68,1.21,3.79
4.364,3.78,-0.97,1.02,4.03
4.374,4.04,-1.14,0.82,4.28
4.384,4.33,-1.47,0.39,4.59
4.394,4.81,-1.72,0.16,5.11
4.404,5.17,-1.77,0.34,5.48
4.414,5.02,-1.97,0.37,5.41
4.424,4.67,-2.04,0.13,5.10
4.434,4.31,-1.88,-0.23,4.71
4.444,3.65,-1.43,-0.80,4.00
4.454,2.77,-0.70,-1.36,3.17
4.464,1.83,0.02,-1.96,2.68
4.474,0.89,0.54,-2.67,2.87
4.484,0.08,0.99,-3.00,3.16
4.494,-0.58,1.26,-2.83,3.15
4.504,-1.20,1.21,-2.65,3.15
4.514,-1.83,0.94,-2.39,3.15
4.524,-2.18,0.55,-2.06,3.05
4.534,-2.39,0.08,-1.72,2.95
4.544,-2.50,-0.38,-1.42,2.90
4.554,-2.44,-0.79,-1.22,2.84
4.564,-2.08,-1.03,-1.20,2.62
4.574,-1.54,-1.15,-1.22,2.28
4.584,-1.05,-1.05,-1.23,1.93
4.594,-0.69,-0.76,-1.15,1.54
4.604,-0.51,-0.43,-1.09,1.28
4.615,-0.45,-0.19,-1.09,1.19
4.624,-0.45,0.06,-1.11,1.20
4.634,-0.45,0.26,-1.27,1.38
4.644,-0.40,0.47,-1.34,1.48
4.655,-0.35,0.77,-1.17,1.45
4.664,-0.35,1.03,-0.86,1.38
4.675,-0.44,1.16,-0.52,1.35
4.685,-0.56,1.18,-0.09,1.31
4.695,-0.65,0.99,0.32,1.23
4.704,-0.75,0.62,0.46,1.07
4.714,-0.80,0.18,0.34,0.89
4.724,-0.83,-0.19,0.09,0.86
4.735,-0.82,-0.45,-0.13,0.95
4.744,-0.84,-0.59,-0.25,1.05
4.755,-0.98,-0.57,-0.14,1.14
4.765,-1.17,-0.40,0.02,1.24
4.775,-1.36,-0.20,0.13,1.38
4.785,-1.50,-0.05,0.26,1.52
4.795,-1.64,0.04,0.37,1.68
4.805,-1.83,0.08,0.48,1.89
4.815,-1.94,0.14,0.61,2.04
4.825,-2.07,0.17,0.67,2.18
4.835,-2.12,0.25,0.63,2.23
4.845,-2.17,0.34,0.67,2.30
4.855,-2.12,0.40,0.63,2.25
4.865,-2.26,0.39,0.51,2.35
4.875,-2.29,0.45,0.53,2.39
4.885,-2.29,0.48,0.47,2.39
4.895,-2.30,0.49,0.33,2.37
4.905,-2.17,0.49,0.18,2.23
4.915,-2.00,0.44,0.06,2.05
4.925,-1.81,0.31,-0.03,1.83
4.935,-1.68,0.18,-0.04,1.69
4.945,-1.56,0.06,0.09,1.56
4.955,-1.46,-0.02,0.27,1.49
4.965,-1.34,-0.06,0.33,1.38
4.975,-1.29,-0.06,0.37,1.34
4.985,-1.30,-0.06,0.37,1.36
4.995,-1.32,-0.03,0.35,1.36
5.005,-1.22,0.18,0.41,1.30
5.015,-0.94,0.40,0.52,1.15
5.025,-0.61,0.58,0.62,1.05
5.035,-0.27,0.75,0.87,1.18
5.045,0.09,0.81,1.16,1.42
5.055,0.44,0.82,1.39,1.67
5.065,0.90,0.70,1.67,2.03
5.075,1.43,0.46,2.09,2.58
5.085,1.86,0.09,2.35,2.99
5.095,2.01,-0.25,2.44,3.17
5.105,2.00,-0.54,2.46,3.22
5.115,2.02,-0.73,2.33,3.17
5.125,2.05,-0.78,2.10,3.03
5.135,2.14,-0.77,1.96,3.00
5.145,2.22,-0.78,1.94,3.05
5.155,2.29,-0.79,1.90,3.08
5.165,2.36,-0.82,1.46,2.89
5.175,2.18,-0.59,0.66,2.35
5.185,2.55,-0.30,-0.10,2.57
5.195,3.59,-0.29,-0.71,3.67
5.205,4.98,0.12,-0.89,5.06
5.215,5.73,0.64,-0.37,5.78
5.225,5.28,0.85,-0.08,5.35
5.235,3.78,0.84,0.24,3.88
5.245,2.02,0.68,0.53,2.20
5.255,0.62,0.29,0.56,0.88
5.265,-0.21,-0.16,0.47,0.54
5.275,-0.77,-0.50,0.11,0.92
5.285,-1.36,-0.64,-0.50,1.58
5.295,-1.69,-0.55,-1.22,2.16
5.305,-1.54,-0.30,-1.94,2.50
5.315,-1.03,0.04,-2.58,2.78
5.325,-0.32,0.36,-2.99,3.03
5.335,0.25,0.61,-3.13,3.20
5.345,0.46,0.74,-3.07,3.19
5.355,0.26,0.72,-2.89,2.99
5.365,-0.07,0.55,-2.61,2.67
5.375,-0.43,0.26,-2.27,2.33
5.385,-0.78,-0.07,-1.95,2.10
5.395,-1.16,-0.41,-1.60,2.01
5.405,-1.47,-0.58,-1.25,2.01
5.415,-1.63,-0.61,-0.99,2.00
5.425,-1.67,-0.55,-0.75,1.92
5.435,-1.70,-0.47,-0.53,1.84
5.445,-1.66,-0.40,-0.37,1.75
5.455,-1.40,-0.35,-0.35,1.48
5.465,-1.06,-0.31,-0.46,1.20
5.475,-0.78,-0.36,-0.52,1.00
5.485,-0.53,-0.40,-0.56,0.87
5.495,-0.32,-0.44,-0.63,0.83
5.505,-0.22,-0.46,-0.62,0.81
5.515,-0.15,-0.44,-0.60,0.76
5.525,-0.17,-0.38,-0.55,0.69
5.535,-0.26,-0.32,-0.51,0.65
5.545,-0.37,-0.28,-0.50,0.69
5.555,-0.52,-0.20,-0.49,0.74
5.565,-0.75,-0.10,-0.42,0.86
5.575,-1.05,-0.00,-0.25,1.08
5.585,-1.14,-0.01,-0.13,1.15
5.595,-1.31,-0.03,-0.04,1.31
5.605,-1.43,-0.01,0.05,1.43
5.615,-1.45,0.02,0.10,1.46
5.625,-1.52,0.03,0.13,1.52
5.635,-1.55,0.00,0.26,1.57
5.645,-1.52,0.01,0.45,1.59
5.655,-1.51,0.06,0.67,1.65
5.665,-1.46,0.18,0.77,1.66
5.675,-1.42,0.26,0.67,1.59
5.685,-1.40,0.33,0.47,1.52
5.695,-1.49,0.34,0.32,1.56
5.705,-1.52,0.30,0.20,1.56
5.716,-1.47,0.26,0.23,1.51
5.725,-1.45,0.22,0.33,1.51
5.736,-1.63,0.12,0.40,1.69
5.745,-1.80,0.01,0.33,1.83
5.755,-1.91,-0.02,0.20,1.92
5.765,-1.89,-0.06,0.14,1.90
5.775,-1.72,-0.07,0.24,1.74
5.785,-1.56,-0.11,0.40,1.62
5.795,-1.44,-0.23,0.59,1.57
5.805,-1.31,-0.31,0.74,1.54
5.816,-1.09,-0.42,0.88,1.46
5.825,-0.88,-0.56,0.94,1.40
5.836,-0.75,-0.70,0.97,1.41
5.846,-0.70,-0.79,1.04,1.48
5.856,-0.70,-0.87,1.05,1.53
5.866,-0.56,-0.85,1.05,1.46
5.876,-0.28,-0.82,1.00,1.32
5.886,0.06,-0.83,0.97,1.28
5.896,0.31,-0.74,0.99,1.27
5.906,0.41,-0.59,1.08,1.30
5.916,0.36,-0.32,1.36,1.44
5.926,0.19,-0.01,1.61,1.62
5.936,-0.19,0.24,1.57,1.60
5.946,-0.49,0.48,1.38,1.54
5.956,-0.54,0.51,1.14,1.37
5.966,-0.35,0.30,1.01,1.11
5.976,-0.00,-0.05,1.06,1.06
5.986,0.54,-0.41,1.19,1.37
5.996,1.19,-0.66,1.22,1.83
6.006,1.76,-0.69,1.20,2.23
6.016,2.20,-0.65,1.34,2.66
6.026,2.76,-0.48,1.68,3.27
6.036,3.43,-0.16,1.85,3.90
6.046,3.81,0.13,1.62,4.14
6.056,4.04,0.39,1.38,4.29
6.066,4.13,0.63,1.27,4.37
6.076,4.16,0.60,1.10,4.34
6.086,4.23,0.20,0.91,4.34
6.096,4.52,-0.44,0.69,4.59
6.106,4.98,-1.21,0.38,5.14
6.116,5.24,-1.90,-0.07,5.57
6.126,4.92,-2.26,-0.41,5.43
6.136,3.89,-2.08,-0.51,4.44
6.146,2.72,-1.43,-0.40,3.10
6.156,1.96,-0.68,-0.31,2.10
6.166,1.45,-0.17,-0.82,1.68
6.176,0.99,0.15,-1.58,1.87
6.186,0.50,0.30,-2.26,2.33
6.196,0.03,0.41,-2.73,2.77
6.206,-0.38,0.55,-2.89,2.96
6.216,-0.66,0.69,-2.76,2.92
6.226,-0.84,0.78,-2.43,2.68
6.236,-1.04,0.79,-2.07,2.44
6.246,-1.26,0.76,-1.86,2.37
6.256,-1.38,0.60,-1.86,2.39
6.266,-1.30,0.36,-1.97,2.39
6.276,-1.20,0.25,-1.94,2.29
6.286,-1.07,0.36,-1.81,2.13
6.296,-0.97,0.45,-1.68,1.99
6.306,-0.96,0.53,-1.44,1.81
6.316,-0.89,0.55,-1.20,1.59
6.326,-0.87,0.52,-1.01,1.43
6.336,-0.95,0.46,-0.89,1.38
6.346,-1.08,0.44,-0.64,1.33
6.356,-1.08,0.38,-0.41,1.22
6.366,-1.12,0.32,-0.26,1.19
6.376,-1.24,0.29,-0.11,1.28
6.386,-1.33,0.22,0.05,1.35
6.396,-1.34,0.05,0.12,1.34
6.406,-1.30,-0.09,0.17,1.32
6.416,-1.19,-0.22,0.25,1.24
6.426,-1.05,-0.36,0.27,1.14
6.436,-0.91,-0.44,0.28,1.05
6.446,-0.87,-0.49,0.27,1.04
6.456,-0.81,-0.47,0.30,0.99
6.466,-0.79,-0.46,0.34,0.97
6.476,-0.86,-0.45,0.31,1.02
6.486,-1.08,-0.45,0.49,1.27
6.496,-1.34,-0.40,0.78,1.60
6.506,-1.59,-0.30,0.85,1.83
6.516,-1.71,-0.22,0.83,1.91
6.526,-1.85,-0.12,0.95,2.08
6.536,-2.12,-0.12,0.97,2.34
6.546,-2.36,-0.17,0.78,2.49
6.556,-2.57,-0.26,0.52,2.63
6.566,-2.73,-0.28,0.35,2.77
6.576,-2.80,-0.23,0.26,2.82
6.586,-2.83,-0.11,0.18,2.83
6.596,-2.70,0.08,0.12,2.70
6.606,-2.53,0.32,0.12,2.55
6.616,-2.39,0.46,0.14,2.43
6.626,-2.21,0.65,0.17,2.31
6.636,-2.08,0.84,0.21,2.25
6.646,-1.86,0.91,0.18,2.08
6.656,-1.63,0.90,0.14,1.87
6.666,-1.40,0.83,0.15,1.64
6.676,-1.17,0.69,0.18,1.37
6.686,-0.99,0.54,0.19,1.14
6.696,-0.79,0.48,0.20,0.95
6.706,-0.57,0.45,0.28,0.78
6.717,-0.28,0.47,0.40,0.68
6.726,0.03,0.51,0.54,0.74
6.737,0.31,0.54,0.77,0.99
6.746,0.59,0.58,1.08,1.36
6.756,0.89,0.59,1.35,1.72
6.766,1.08,0.56,1.60,2.01
6.776,1.19,0.48,1.91,2.30
6.786,1.20,0.34,2.27,2.59
6.796,1.17,0.15,2.45,2.72
6.806,1.30,-0.05,2.44,2.77
6.816,1.56,-0.20,2.34,2.81
6.826,1.80,-0.18,2.21,2.86
6.837,1.99,-0.09,2.09,2.89
6.847,2.26,-0.03,2.02,3.03
6.856,2.51,-0.02,1.94,3.17
6.866,2.63,-0.08,1.71,3.14
6.877,2.31,-0.29,0.92,2.51
6.886,1.62,-0.29,-0.27,1.67
6.897,1.65,-0.01,-1.30,2.10
6.906,2.61,0.23,-1.75,3.15
6.917,3.94,0.76,-1.74,4.38
6.927,5.03,1.23,-0.85,5.25
6.937,5.47,1.38,0.59,5.67
6.946,4.85,1.21,1.58,5.24
6.957,3.29,1.02,2.21,4.10
6.967,1.74,0.70,2.40,3.04
6.977,0.50,0.06,1.78,1.85
6.987,-0.19,-0.49,0.58,0.78
6.997,-0.26,-0.71,-0.81,1.11
7.007,-0.05,-0.71,-2.10,2.22
7.017,0.09,-0.67,-2.94,3.01
7.027,0.14,-0.68,-3.31,3.39
7.037,0.06,-0.74,-3.37,3.45
7.047,-0.14,-0.83,-3.04,3.15
7.057,-0.34,-0.78,-2.59,2.73
7.067,-0.47,-0.71,-2.21,2.37
7.077,-0.43,-0.59,-2.03,2.16
7.087,-0.43,-0.51,-1.84,1.95
7.097,-0.53,-0.54,-1.75,1.91
7.107,-0.67,-0.65,-1.72,1.95
7.117,-0.83,-0.82,-1.59,1.97
7.127,-0.96,-0.96,-1.40,1.95
7.137,-1.06,-0.98,-1.16,1.85
7.147,-1.17,-0.89,-0.92,1.73
7.157,-1.31,-0.71,-0.70,1.65
7.167,-1.40,-0.48,-0.57,1.59
7.177,-1.40,-0.24,-0.51,1.51
7.187,-1.38,-0.13,-0.49,1.47
7.197,-1.40,-0.12,-0.37,1.46
7.207,-1.47,-0.27,-0.28,1.52
7.217,-1.51,-0.46,-0.27,1.60
7.227,-1.51,-0.59,-0.30,1.65
7.237,-1.51,-0.59,-0.30,1.65
7.247,-1.36,-0.50,-0.25,1.47
7.257,-1.14,-0.37,-0.19,1.21
7.267,-0.88,-0.20,-0.14,0.92
7.277,-0.80,-0.00,-0.16,0.81
7.287,-0.65,0.16,-0.21,0.70
7.297,-0.57,0.15,-0.29,0.66
7.307,-0.75,0.10,-0.24,0.80
7.317,-0.92,0.09,-0.09,0.93
7.327,-1.08,0.06,0.07,1.08
7.337,-1.29,0.00,0.20,1.31
7.347,-1.52,-0.02,0.34,1.56
7.357,-1.65,0.00,0.51,1.73
7.367,-1.76,0.05,0.64,1.88
7.377,-1.92,0.05,0.64,2.02
7.387,-2.06,0.08,0.53,2.13
7.397,-2.16,0.13,0.46,2.21
7.407,-2.11,0.11,0.37,2.14
7.417,-1.99,0.06,0.30,2.01
7.427,-1.90,0.02,0.31,1.92
7.437,-1.79,-0.02,0.31,1.82
7.447,-1.73,-0.09,0.33,1.77
7.457,-1.59,-0.14,0.48,1.67
7.467,-1.53,-0.14,0.61,1.65
7.477,-1.60,-0.20,0.60,1.72
7.487,-1.60,-0.28,0.58,1.73
7.497,-1.47,-0.39,0.60,1.63
7.507,-1.30,-0.45,0.67,1.53
7.517,-1.06,-0.42,0.76,1.37
7.527,-0.77,-0.38,0.77,1.15
7.537,-0.60,-0.38,0.78,1.06
7.547,-0.48,-0.40,0.84,1.05
7.557,-0.49,-0.47,0.80,1.05
7.567,-0.60,-0.60,0.75,1.13
7.577,-0.60,-0.73,0.75,1.21
7.587,-0.55,-0.86,0.80,1.30
7.597,-0.36,-0.94,0.77,1.27
7.607,-0.09,-0.89,0.72,1.15
7.617,0.20,-0.70,0.88,1.14
7.627,0.51,-0.41,1.20,1.37
7.637,0.76,-0.03,1.55,1.72
7.647,0.89,0.20,1.67,1.91
7.657,1.00,0.32,1.65,1.95
7.667,1.18,0.27,1.59,2.00
7.677,1.26,0.14,1.63,2.07
7.687,1.24,-0.02,1.79,2.18
7.697,1.24,-0.17,2.08,2.43
7.707,1.28,-0.37,2.23,2.60
7.717,1.40,-0.61,2.09,2.59
7.727,1.68,-0.82,1.58,2.45
7.737,2.19,-0.96,0.87,2.54
7.747,2.78,-1.02,0.27,2.98
7.757,3.60,-0.76,-0.07,3.68
7.767,4.65,-0.46,-0.38,4.69
7.777,5.58,-0.35,-0.71,5.64
7.787,6.27,-0.38,-0.70,6.32
7.797,6.48,-0.58,-0.35,6.52
7.807,6.05,-0.91,-0.11,6.12
7.817,5.14,-1.14,-0.08,5.26
7.827,4.00,-1.12,0.15,4.16
7.837,2.86,-0.84,0.41,3.01
7.847,1.83,-0.44,0.27,1.90
7.857,0.87,-0.06,-0.21,0.89
7.867,0.09,0.26,-0.89,0.93
7.877,-0.54,0.43,-1.56,1.70
7.887,-0.92,0.47,-2.18,2.41
7.897,-1.02,0.40,-2.57,2.79
7.908,-1.03,0.22,-2.66,2.86
7.917,-1.10,0.03,-2.57,2.79
7.927,-1.20,-0.08,-2.35,2.64
7.938,-1.37,-0.07,-2.13,2.53
7.948,-1.39,0.01,-1.94,2.39
7.958,-1.36,0.15,-1.71,2.19
7.968,-1.29,0.31,-1.34,1.88
7.978,-1.27,0.55,-1.17,1.81
7.988,-1.29,0.66,-1.05,1.79
7.998,-1.13,0.65,-0.91,1.60
8.007,-1.03,0.75,-0.83,1.52
8.018,-1.02,0.91,-0.77,1.56
8.028,-1.01,0.99,-0.65,1.56
8.038,-1.00,1.03,-0.51,1.53
8.048,-1.09,1.02,-0.53,1.58
8.058,-1.18,0.95,-0.52,1.60
8.068,-1.29,0.91,-0.44,1.63
8.078,-1.34,0.83,-0.40,1.63
8.088,-1.42,0.70,-0.36,1.63
8.098,-1.36,0.53,-0.21,1.48
8.108,-1.23,0.44,-0.18,1.32
8.118,-1.07,0.32,-0.17,1.13
8.128,-0.95,0.22,-0.05,0.98
8.138,-0.86,0.12,0.11,0.88
8.148,-0.83,0.01,0.21,0.85
8.158,-0.93,-0.11,0.27,0.98
8.168,-1.11,-0.24,0.33,1.18
8.178,-1.28,-0.36,0.28,1.36
8.188,-1.38,-0.39,0.22,1.45
8.198,-1.42,-0.41,0.16,1.49
8.208,-1.44,-0.38,0.04,1.49
8.218,-1.58,-0.40,-0.04,1.63
8.228,-1.74,-0.51,-0.07,1.81
8.238,-1.94,-0.59,-0.08,2.03
8.248,-2.16,-0.60,-0.10,2.24
8.258,-2.39,-0.52,-0.10,2.44
8.268,-2.50,-0.41,-0.12,2.53
8.278,-2.59,-0.39,-0.14,2.62
8.288,-2.74,-0.35,-0.01,2.77
8.298,-2.74,-0.22,0.29,2.76
8.308,-2.62,-0.06,0.46,2.66
8.318,-2.47,0.08,0.52,2.52
8.328,-2.10,0.19,0.48,2.17
8.338,-1.72,0.28,0.46,1.80
8.348,-1.39,0.31,0.52,1.52
8.358,-0.97,0.38,0.61,1.21
8.368,-0.59,0.50,0.78,1.10
8.378,-0.31,0.62,0.91,1.14
8.388,-0.07,0.72,1.00,1.24
8.398,0.09,0.71,1.06,1.28
8.408,0.09,0.65,1.15,1.33
8.418,0.04,0.65,1.21,1.37
8.428,0.04,0.67,1.23,1.40
8.438,0.15,0.71,1.21,1.42
8.448,0.30,0.76,1.32,1.55
8.458,0.55,0.78,1.53,1.80
8.468,0.87,0.73,1.72,2.06
8.478,1.14,0.68,1.89,2.31
8.488,1.47,0.58,1.99,2.54
8.498,1.81,0.37,1.95,2.69
8.508,2.22,0.17,1.97,2.98
8.518,2.59,-0.00,1.97,3.25
8.528,2.82,-0.12,1.89,3.40
8.538,2.85,-0.16,1.77,3.36
8.548,2.66,-0.08,1.66,3.14
8.558,2.55,0.02,1.46,2.93
8.568,2.80,0.02,1.08,3.00
8.578,3.50,0.19,0.64,3.56
8.588,4.53,0.45,0.10,4.55
8.598,5.36,0.82,-0.06,5.42
8.608,5.64,1.23,0.06,5.77
8.618,5.15,1.45,0.42,5.37
8.628,4.06,1.34,0.67,4.33
8.638,2.77,0.94,0.60,2.98
8.648,1.79,0.35,0.30,1.85
8.658,0.83,-0.27,-0.27,0.91
8.668,-0.05,-0.51,-0.91,1.04
8.678,-0.71,-0.30,-1.65,1.82
8.688,-1.04,-0.02,-2.46,2.67
8.698,-1.00,0.07,-3.03,3.19
8.708,-0.80,-0.01,-3.37,3.46
8.718,-0.63,-0.20,-3.49,3.55
8.728,-0.52,-0.58,-3.43,3.52
8.738,-0.59,-1.01,-3.23,3.44
8.748,-0.72,-1.32,-2.97,3.33
8.758,-0.71,-1.47,-2.59,3.06
8.768,-0.76,-1.49,-2.13,2.71
8.778,-0.97,-1.35,-1.70,2.38
8.788,-1.22,-1.06,-1.30,2.07
8.798,-1.47,-0.69,-0.96,1.89
8.808,-1.67,-0.39,-0.56,1.81
8.819,-1.86,-0.24,-0.17,1.88
8.828,-1.91,-0.20,-0.06,1.92
8.838,-1.76,-0.20,-0.14,1.78
8.848,-1.52,-0.25,-0.20,1.56
8.858,-1.30,-0.25,-0.21,1.34
8.868,-1.29,-0.20,-0.16,1.31
8.878,-1.42,-0.11,-0.09,1.42
8.888,-1.46,-0.04,-0.14,1.46
8.899,-1.39,0.08,-0.18,1.41
8.909,-1.33,0.13,-0.15,1.35
8.918,-1.21,0.15,-0.11,1.23
8.929,-1.05,0.15,0.01,1.06
8.939,-1.03,0.11,0.12,1.04
8.948,-1.01,0.06,0.19,1.03
8.959,-0.92,0.02,0.12,0.92
8.968,-0.94,-0.00,0.07,0.95
8.979,-0.98,-0.03,0.07,0.98
8.988,-1.09,-0.07,0.06,1.09
8.999,-1.29,-0.14,0.14,1.31
9.008,-1.46,-0.13,0.26,1.49
9.018,-1.57,-0.09,0.24,1.59
9.029,-1.60,0.01,0.22,1.62
9.039,-1.55,0.12,0.26,1.57
9.049,-1.48,0.23,0.29,1.53
9.059,-1.42,0.34,0.31,1.49
9.068,-1.45,0.37,0.37,1.54
9.079,-1.55,0.35,0.50,1.66
9.088,-1.69,0.31,0.70,1.85
9.099,-1.82,0.15,0.94,2.05
9.109,-2.03,-0.07,1.02,2.27
9.119,-2.16,-0.24,1.04,2.40
9.129,-2.16,-0.37,1.05,2.43
9.139,-2.00,-0.48,1.01,2.29
9.149,-1.81,-0.59,0.96,2.14
9.159,-1.51,-0.66,0.94,1.90
9.169,-1.12,-0.68,0.93,1.61
9.179,-0.80,-0.59,0.89,1.33
9.189,-0.57,-0.43,0.92,1.17
9.199,-0.50,-0.27,1.03,1.18
9.209,-0.55,-0.13,1.01,1.16
9.219,-0.65,-0.03,0.88,1.10
9.229,-0.77,-0.04,0.73,1.06
9.239,-0.69,-0.09,0.64,0.95
9.249,-0.35,-0.10,0.59,0.69
9.259,-0.01,-0.10,0.52,0.53
9.269,0.26,-0.08,0.43,0.51
9.279,0.43,-0.01,0.46,0.63
9.289,0.43,-0.01,0.62,0.76
9.299,0.44,-0.06,0.94,1.04
9.309,0.45,-0.08,1.33,1.40
9.319,0.47,-0.16,1.72,1.79
9.329,0.54,-0.27,1.98,2.07
9.339,0.68,-0.37,2.12,2.25
9.349,0.88,-0.53,2.09,2.33
9.359,1.18,-0.65,1.96,2.38
9.369,1.70,-0.75,1.88,2.65
9.379,2.18,-0.65,1.93,2.99
9.389,2.19,-0.59,1.74,2.85
9.399,1.73,-0.78,1.49,2.42
9.409,1.57,-0.86,1.47,2.32
9.419,2.24,-0.73,1.29,2.68
9.429,3.29,-0.80,0.71,3.46
9.439,4.31,-1.03,0.04,4.43
9.449,5.14,-1.15,-0.23,5.27
9.459,5.50,-1.11,-0.40,5.62
9.469,5.36,-0.86,-0.58,5.46
9.479,4.92,-0.51,-0.64,4.99
9.489,4.27,-0.17,-0.47,4.30
9.499,3.58,0.12,-0.19,3.58
9.509,2.95,0.33,-0.10,2.97
9.519,2.35,0.41,-0.23,2.40
9.529,1.74,0.36,-0.79,1.95
9.539,1.13,0.36,-1.59,1.98
9.549,0.52,0.48,-2.32,2.42
9.559,-0.10,0.56,-2.84,2.89
9.569,-0.63,0.55,-3.11,3.22
9.579,-0.99,0.40,-3.13,3.31
9.589,-1.29,0.19,-2.87,3.16
9.599,-1.53,0.07,-2.61,3.03
9.609,-1.58,0.05,-2.39,2.87
9.619,-1.61,0.10,-2.15,2.69
9.629,-1.60,0.17,-1.81,2.42
9.639,-1.48,0.21,-1.54,2.14
9.649,-1.51,0.26,-1.28,1.99
9.659,-1.30,0.38,-1.07,1.73
9.669,-1.02,0.47,-1.04,1.53
9.679,-1.16,0.42,-0.82,1.48
9.689,-1.31,0.43,-0.62,1.51
9.699,-1.33,0.52,-0.57,1.54
9.709,-1.26,0.61,-0.58,1.52
9.719,-1.25,0.66,-0.55,1.51
9.729,-1.25,0.72,-0.46,1.51
9.739,-1.20,0.77,-0.44,1.49
9.749,-1.23,0.68,-0.43,1.47
9.759,-1.35,0.55,-0.30,1.49
9.769,-1.41,0.39,-0.14,1.47
9.779,-1.33,0.16,-0.02,1.34
9.789,-1.20,-0.04,0.16,1.21
9.799,-1.13,-0.22,0.30,1.19
9.809,-1.03,-0.44,0.31,1.17
9.819,-1.04,-0.67,0.28,1.26
9.829,-1.04,-0.78,0.31,1.34
9.840,-0.96,-0.74,0.33,1.26
9.849,-0.90,-0.57,0.33,1.12
9.859,-0.93,-0.31,0.36,1.04
9.869,-1.07,-0.01,0.43,1.15
9.879,-1.31,0.25,0.44,1.40
9.889,-1.60,0.42,0.43,1.71
9.899,-1.84,0.47,0.50,1.96
9.909,-2.01,0.35,0.61,2.13
9.919,-2.22,0.12,0.66,2.32
9.929,-2.52,-0.14,0.69,2.62
9.940,-2.72,-0.30,0.62,2.80
9.949,-2.82,-0.38,0.44,2.88
9.959,-2.84,-0.44,0.26,2.88
9.969,-2.77,-0.37,0.18,2.80
9.979,-2.66,-0.23,0.12,2.67
9.989,-2.43,-0.01,0.08,2.43
10.000,-2.16,0.25,0.10,2.17
10.009,-1.82,0.44,0.16,1.88
10.019,-1.47,0.49,0.24,1.57
10.029,-1.18,0.49,0.39,1.34
10.039,-0.94,0.47,0.62,1.22
10.049,-0.72,0.48,0.82,1.19
10.060,-0.57,0.53,0.94,1.22
10.069,-0.41,0.61,1.02,1.26
10.079,-0.26,0.70,1.08,1.32
10.090,-0.14,0.80,1.10,1.37
10.100,0.06,0.93,1.06,1.41
10.110,0.26,1.06,1.02,1.50
10.120,0.49,1.16,1.19,1.73
10.129,0.73,1.10,1.31,1.86
10.140,0.91,0.91,1.36,1.87
10.149,1.06,0.68,1.62,2.06
10.160,1.21,0.33,2.00,2.36
10.170,1.22,-0.07,2.14,2.46
10.180,1.14,-0.35,2.14,2.45
10.190,1.17,-0.54,2.07,2.44
10.200,1.36,-0.59,1.92,2.42
10.210,1.71,-0.54,1.70,2.47
10.220,2.14,-0.43,1.44,2.62
10.229,2.40,-0.38,1.35,2.78
10.240,2.26,-0.33,1.41,2.68
10.249,2.07,-0.01,1.41,2.50
10.260,2.27,0.17,1.15,2.55
10.270,2.70,0.23,0.76,2.81
10.280,3.42,0.50,0.48,3.49
10.290,4.45,0.73,0.07,4.51
10.300,5.36,0.79,-0.25,5.42
10.310,5.68,0.81,-0.28,5.75
10.320,5.44,0.80,-0.18,5.51
10.330,4.90,0.64,-0.06,4.94
10.340,4.01,0.18,-0.13,4.01
10.350,2.84,-0.36,-0.46,2.90
10.360,1.59,-0.78,-0.95,2.01
10.370,0.56,-1.08,-1.50,1.93
10.380,-0.34,-1.24,-1.98,2.36
10.390,-1.12,-1.32,-2.38,2.94
10.400,-1.65,-1.30,-2.83,3.52
10.410,-1.77,-1.24,-3.14,3.81
10.420,-1.51,-0.99,-3.15,3.63
10.430,-1.27,-0.55,-2.94,3.25
10.440,-1.15,-0.07,-2.60,2.85
10.450,-1.07,0.39,-2.24,2.51
10.460,-0.95,0.62,-1.97,2.27
10.470,-0.82,0.53,-1.88,2.12
10.480,-0.71,0.24,-1.80,1.95
10.490,-0.61,-0.17,-1.69,1.81
10.500,-0.48,-0.64,-1.53,1.73
10.510,-0.49,-1.04,-1.28,1.72
10.520,-0.65,-1.27,-0.96,1.72
10.530,-0.76,-1.32,-0.70,1.68
10.540,-0.78,-1.25,-0.46,1.54
10.550,-0.81,-1.06,-0.24,1.36
10.560,-0.96,-0.86,-0.13,1.29
10.570,-1.15,-0.67,-0.09,1.34
10.580,-1.24,-0.42,-0.07,1.31
10.590,-1.23,-0.18,-0.03,1.24
10.600,-1.13,-0.00,0.03,1.13
10.610,-1.02,0.08,0.05,1.02
10.620,-0.98,0.13,0.01,0.99
10.630,-1.03,0.21,-0.09,1.05
10.640,-1.07,0.34,-0.23,1.15
10.650,-1.04,0.39,-0.39,1.18
10.660,-1.06,0.36,-0.54,1.24
10.670,-1.18,0.44,-0.61,1.40
10.680,-1.41,0.54,-0.59,1.63
10.690,-1.45,0.64,-0.41,1.64
10.700,-1.45,0.60,-0.21,1.58
10.710,-1.61,0.48,0.01,1.68
10.720,-1.79,0.36,0.16,1.83
10.730,-1.92,0.25,0.31,1.96
10.740,-1.95,0.10,0.47,2.01
10.750,-2.06,-0.06,0.52,2.13
10.760,-2.18,-0.13,0.61,2.26
10.770,-2.18,-0.12,0.77,2.31
10.780,-2.12,-0.16,0.85,2.29
10.790,-2.04,-0.28,0.93,2.26
10.800,-2.04,-0.39,1.06,2.33
10.810,-2.04,-0.46,1.14,2.38
10.820,-2.04,-0.53,1.18,2.42
10.830,-2.01,-0.57,1.12,2.37
10.840,-1.86,-0.61,1.03,2.21
10.850,-1.62,-0.69,0.87,1.96
10.860,-1.30,-0.75,0.73,1.67
10.870,-0.92,-0.76,0.65,1.36
10.880,-0.67,-0.69,0.62,1.15
10.890,-0.58,-0.59,0.68,1.07
10.900,-0.67,-0.52,0.73,1.11
10.910,-0.67,-0.51,0.70,1.09
10.920,-0.56,-0.54,0.77,1.09
10.930,-0.47,-0.59,0.84,1.13
10.940,-0.32,-0.63,0.89,1.14
10.950,-0.12,-0.63,1.01,1.19
10.960,-0.02,-0.55,1.22,1.34
10.970,-0.06,-0.42,1.42,1.49
10.980,-0.08,-0.26,1.53,1.55
10.990,-0.13,-0.11,1.57,1.58
11.000,-0.09,0.04,1.58,1.59
11.010,-0.12,0.19,1.60,1.62
11.020,-0.18,0.29,1.62,1.66
11.030,-0.14,0.30,1.63,1.66
11.040,-0.17,0.24,1.58,1.61
11.050,-0.11,0.10,1.43,1.44
11.060,0.17,-0.09,1.25,1.26
11.070,0.61,-0.27,1.11,1.30
11.080,1.11,-0.40,0.98,1.53
11.090,1.58,-0.40,0.80,1.81
11.101,1.80,-0.42,0.72,1.98
11.110,1.90,-0.53,0.79,2.12
11.121,2.30,-0.71,1.04,2.62
11.130,2.99,-0.88,1.39,3.41
11.141,3.53,-1.13,1.49,4.00
11.151,4.04,-1.41,1.42,4.51
11.161,4.72,-1.65,1.45,5.20
11.170,5.26,-1.96,1.26,5.75
11.181,5.51,-2.15,0.74,5.96
11.191,5.52,-2.13,0.26,5.92
11.201,5.19,-1.86,-0.05,5.51
11.211,4.57,-1.34,-0.16,4.77
11.220,3.80,-0.68,-0.13,3.86
11.231,2.96,-0.11,-0.30,2.98
11.241,2.19,0.34,-0.72,2.33
11.251,1.49,0.68,-1.58,2.27
11.261,0.80,0.99,-2.75,3.03
11.271,0.18,1.32,-3.62,3.86
11.281,-0.32,1.66,-3.86,4.21
11.291,-0.62,1.90,-3.73,4.23
11.301,-0.76,1.91,-3.61,4.15
11.311,-0.97,1.66,-3.27,3.80
11.321,-1.22,1.28,-2.64,3.18
11.331,-1.41,0.89,-1.94,2.56
11.341,-1.50,0.60,-1.38,2.13
11.351,-1.41,0.42,-1.01,1.78
11.361,-1.17,0.35,-0.71,1.41
11.371,-1.01,0.26,-0.60,1.21
11.381,-0.92,0.13,-0.50,1.06
11.391,-0.96,-0.06,-0.60,1.14
11.401,-1.11,-0.29,-0.68,1.33
11.411,-1.20,-0.59,-0.63,1.48
11.421,-1.29,-0.83,-0.63,1.66
11.431,-1.42,-0.84,-0.76,1.81
11.441,-1.49,-0.67,-0.89,1.86
11.451,-1.49,-0.43,-0.82,1.75
11.461,-1.53,-0.22,-0.61,1.66
11.471,-1.60,-0.08,-0.39,1.65
11.481,-1.61,0.01,-0.11,1.61
11.491,-1.64,0.02,0.10,1.64
11.501,-1.63,-0.04,0.23,1.65
11.511,-1.57,-0.08,0.36,1.61
11.521,-1.49,-0.16,0.34,1.54
11.531,-1.43,-0.17,0.26,1.47
11.541,-1.34,-0.11,0.21,1.36
11.551,-1.21,-0.01,0.15,1.22
11.561,-1.13,0.12,0.18,1.15
11.571,-1.24,0.22,0.30,1.29
11.581,-1.44,0.24,0.38,1.50
11.591,-1.63,0.21,0.39,1.69
11.601,-1.80,0.09,0.54,1.88
11.611,-1.94,-0.07,0.64,2.04
11.621,-2.01,-0.23,0.67,2.13
11.631,-1.95,-0.28,0.57,2.05
11.641,-1.86,-0.23,0.48,1.94
11.651,-1.71,-0.10,0.48,1.78
11.661,-1.63,0.13,0.51,1.72
11.671,-1.52,0.33,0.53,1.65
11.681,-1.41,0.48,0.47,1.56
11.691,-1.29,0.59,0.42,1.48
11.701,-1.18,0.65,0.48,1.43
11.711,-1.10,0.64,0.54,1.38
11.721,-1.01,0.61,0.50,1.28
11.731,-0.88,0.57,0.51,1.17
11.741,-0.84,0.49,0.65,1.17
11.751,-0.97,0.39,0.79,1.31
11.761,-1.09,0.34,0.85,1.42
11.771,-1.05,0.44,0.87,1.43
11.781,-0.82,0.55,0.91,1.34
11.791,-0.52,0.66,0.96,1.27
11.801,-0.14,0.82,0.93,1.25
11.811,0.22,0.88,0.71,1.15
11.821,0.52,0.87,0.74,1.25
11.831,0.83,0.79,1.22,1.67
11.841,1.07,0.61,1.74,2.14
11.851,1.15,0.39,2.13,2.45
11.861,1.28,0.13,2.42,2.74
11.871,1.46,-0.11,2.46,2.86
11.881,1.67,-0.25,2.28,2.83
11.891,1.84,-0.32,2.04,2.76
11.901,1.90,-0.19,1.81,2.63
11.911,2.10,0.03,1.64,2.66
11.921,2.25,-0.09,1.48,2.69
11.931,2.29,-0.26,1.25,2.62
11.941,2.66,-0.35,0.77,2.80
11.951,3.50,-0.52,0.02,3.54
11.961,4.30,-0.62,-0.56,4.38
11.971,4.46,-0.37,-0.70,4.53
11.981,4.07,0.08,-0.43,4.10
11.991,3.32,0.52,0.08,3.36
12.001,2.46,0.73,0.62,2.64
12.011,1.68,0.63,0.77,1.95
12.021,0.84,0.14,0.53,1.01
12.031,0.07,-0.46,-0.12,0.48
12.041,-0.40,-0.76,-0.90,1.24
12.051,-0.33,-0.76,-1.71,1.90
12.061,0.10,-0.48,-2.45,2.50
12.071,0.62,0.02,-2.90,2.97
12.082,0.99,0.50,-3.09,3.28
12.091,0.93,0.84,-3.19,3.43
12.101,0.58,0.89,-3.20,3.37
12.112,0.16,0.66,-3.13,3.20
12.121,-0.18,0.18,-3.01,3.02
12.132,-0.42,-0.39,-2.86,2.91
12.142,-0.69,-0.94,-2.74,2.98
12.151,-0.88,-1.42,-2.64,3.12
12.161,-1.06,-1.71,-2.45,3.17
12.171,-1.22,-1.75,-2.07,2.97
12.181,-1.30,-1.65,-1.62,2.65
12.191,-1.36,-1.37,-1.17,2.26
12.201,-1.38,-1.02,-0.82,1.90
12.211,-1.32,-0.67,-0.70,1.64
12.222,-1.22,-0.38,-0.69,1.45
12.231,-1.16,-0.15,-0.68,1.35
12.241,-1.16,-0.04,-0.64,1.32
12.251,-1.22,0.03,-0.53,1.33
12.262,-1.24,0.20,-0.32,1.30
12.272,-1.35,0.35,-0.02,1.39
12.281,-1.47,0.49,0.32,1.58
12.292,-1.52,0.63,0.50,1.72
12.302,-1.56,0.68,0.59,1.80
12.311,-1.63,0.60,0.64,1.85
12.322,-1.58,0.45,0.62,1.76
12.332,-1.49,0.31,0.54,1.61
12.342,-1.45,0.27,0.53,1.57
12.352,-1.51,0.24,0.53,1.62
12.362,-1.50,0.14,0.42,1.57
12.372,-1.38,0.04,0.28,1.41
12.382,-1.24,-0.06,0.19,1.26
12.392,-1.17,-0.11,0.12,1.18
12.402,-1.08,-0.12,0.08,1.09
12.412,-0.98,-0.05,0.09,0.99
12.422,-0.88,0.03,0.18,0.90
12.432,-0.86,0.14,0.32,0.93
12.442,-0.92,0.27,0.49,1.08
12.452,-1.07,0.37,0.64,1.30
12.462,-1.31,0.34,0.76,1.55
12.472,-1.60,0.25,0.83,1.82
12.482,-1.83,0.08,0.89,2.04
12.492,-1.96,-0.11,0.93,2.17
12.502,-2.04,-0.28,0.95,2.27
12.512,-2.05,-0.33,0.99,2.30
12.522,-1.97,-0.30,1.03,2.24
12.532,-1.77,-0.25,0.98,2.04
12.542,-1.49,-0.19,0.85,1.72
12.552,-1.28,-0.10,0.74,1.48
12.562,-1.21,-0.13,0.69,1.39
12.572,-1.12,-0.16,0.65,1.31
12.582,-1.12,-0.24,0.68,1.33
12.592,-1.22,-0.35,0.77,1.48
12.602,-1.15,-0.41,0.92,1.53
12.612,-1.08,-0.46,1.06,1.59
12.622,-1.04,-0.45,1.15,1.62
12.632,-0.87,-0.41,1.19,1.53
12.642,-0.69,-0.42,1.21,1.45
12.652,-0.38,-0.45,1.24,1.37
12.662,0.10,-0.40,1.30,1.37
12.672,0.56,-0.39,1.43,1.58
12.682,0.99,-0.38,1.61,1.93
12.692,1.29,-0.37,1.80,2.25
12.702,1.37,-0.33,1.91,2.38
12.712,1.36,-0.24,1.94,2.38
12.722,1.42,-0.15,1.97,2.43
12.732,1.47,-0.12,2.04,2.52
12.742,1.39,-0.21,2.32,2.71
12.752,1.68,-0.16,2.65,3.15
12.762,2.14,-0.02,2.54,3.32
12.772,2.34,0.01,1.80,2.95
12.782,2.74,-0.08,0.99,2.91
12.792,3.61,-0.22,0.46,3.65
12.802,4.56,-0.51,0.02,4.59
12.812,5.38,-1.11,-0.47,5.51
12.822,5.98,-1.74,-0.89,6.29
12.832,6.39,-2.14,-1.31,6.87
12.842,6.24,-2.03,-1.64,6.77
12.852,5.19,-1.45,-1.48,5.59
12.862,3.81,-0.66,-1.02,4.00
12.872,2.78,0.07,-0.58,2.84
12.882,2.07,0.43,-0.51,2.17
12.892,1.50,0.46,-1.08,1.91
12.902,1.11,0.50,-1.75,2.13
12.912,0.84,0.49,-2.30,2.50
12.922,0.29,0.49,-2.63,2.69
12.932,-0.38,0.59,-2.54,2.64
12.942,-1.06,0.66,-2.23,2.56
12.952,-1.66,0.64,-1.87,2.58
12.962,-2.13,0.50,-1.60,2.71
12.972,-2.40,0.26,-1.47,2.83
12.982,-2.44,0.04,-1.43,2.83
12.992,-2.30,-0.04,-1.43,2.71
13.002,-2.08,0.05,-1.36,2.49
13.012,-1.83,0.28,-1.16,2.18
13.022,-1.50,0.50,-0.89,1.82
13.032,-1.13,0.64,-0.78,1.51
13.042,-0.88,0.67,-0.71,1.32
13.052,-0.86,0.65,-0.50,1.18
13.062,-0.88,0.59,-0.34,1.11
13.072,-0.89,0.46,-0.20,1.02
13.082,-0.90,0.34,0.03,0.96
13.092,-0.91,0.18,0.24,0.96
13.102,-0.94,0.05,0.51,1.07
13.112,-0.97,-0.02,0.71,1.20
13.122,-1.01,-0.06,0.72,1.24
13.132,-1.01,-0.10,0.66,1.21
13.142,-1.01,-0.13,0.56,1.16
13.152,-0.95,-0.16,0.41,1.04
13.163,-0.86,-0.13,0.32,0.93
13.172,-0.83,-0.13,0.26,0.88
13.182,-0.83,-0.11,0.20,0.86
13.192,-0.89,-0.07,0.23,0.92
13.202,-0.97,-0.04,0.31,1.01
13.212,-1.11,-0.07,0.39,1.17
13.222,-1.28,-0.13,0.48,1.37
13.232,-1.43,-0.21,0.60,1.56
13.243,-1.65,-0.22,0.74,1.82
13.252,-1.83,-0.19,0.76,1.99
13.262,-1.98,-0.10,0.67,2.09
13.272,-2.15,0.05,0.53,2.22
13.282,-2.34,0.17,0.30,2.37
13.292,-2.58,0.28,0.10,2.59
13.303,-2.65,0.41,-0.01,2.69
13.312,-2.56,0.60,-0.11,2.63
13.322,-2.50,0.71,-0.15,2.60
13.332,-2.33,0.78,-0.16,2.46
13.343,-2.06,0.85,-0.19,2.24
13.352,-1.76,0.83,-0.12,1.95
13.363,-1.55,0.70,0.05,1.70
13.373,-1.45,0.51,0.20,1.56
13.383,-1.29,0.38,0.45,1.42
13.393,-1.10,0.18,0.70,1.32
13.403,-0.98,-0.04,0.84,1.29
13.413,-0.94,-0.17,0.83,1.26
13.423,-0.88,-0.21,0.70,1.14
13.433,-0.73,-0.19,0.55,0.93
13.443,-0.47,-0.12,0.50,0.69
13.453,-0.24,0.02,0.58,0.63
13.463,0.01,0.23,0.85,0.88
13.473,0.32,0.43,1.44,1.54
13.483,0.55,0.53,2.05,2.19
13.493,0.77,0.54,2.50,2.67
13.503,0.94,0.43,2.79,2.97
13.513,1.10,0.31,2.83,3.06
13.523,1.53,0.26,2.79,3.19
13.533,2.02,0.24,2.72,3.40
13.543,2.40,0.28,2.57,3.53
13.553,2.58,0.19,2.42,3.54
13.563,2.41,0.09,2.35,3.37
13.573,2.33,0.09,1.98,3.06
13.583,2.26,-0.16,1.15,2.54
13.593,2.68,-0.25,0.26,2.71
13.603,3.90,-0.01,-0.55,3.94
13.613,5.37,0.20,-0.98,5.47
13.623,6.31,0.21,-1.13,6.42
13.633,6.12,0.07,-0.91,6.18
13.643,5.03,-0.15,-0.41,5.05
13.653,3.80,-0.44,0.26,3.83
13.663,2.65,-0.80,0.85,2.90
13.673,1.60,-1.14,1.02,2.22
13.683,0.75,-1.29,0.73,1.66
13.693,0.09,-1.22,-0.01,1.22
13.703,-0.16,-0.95,-1.06,1.43
13.713,-0.10,-0.63,-2.22,2.31
13.723,0.17,-0.26,-3.19,3.20
13.733,0.33,0.10,-3.74,3.76
13.743,0.11,0.32,-3.98,4.00
13.753,-0.34,0.37,-3.88,3.92
13.763,-0.61,0.24,-3.53,3.59
13.773,-0.86,-0.09,-3.05,3.17
13.783,-1.06,-0.61,-2.55,2.83
13.793,-1.25,-1.31,-2.19,2.84
13.803,-1.54,-1.78,-1.68,2.90
13.813,-1.74,-1.90,-1.16,2.83
13.823,-1.84,-1.96,-0.89,2.83
13.833,-2.05,-1.80,-0.37,2.75
13.843,-2.24,-1.43,0.02,2.66
13.853,-2.14,-0.93,0.07,2.34
13.863,-2.02,-0.43,-0.14,2.07
13.873,-1.95,0.06,-0.39,1.99
13.883,-1.76,0.46,-0.64,1.93
13.893,-1.52,0.83,-0.89,1.95
13.903,-1.34,1.04,-1.16,2.06
13.913,-1.26,1.18,-1.41,2.23
13.923,-1.21,1.19,-1.53,2.28
13.933,-1.16,1.06,-1.51,2.18
13.943,-1.12,0.89,-1.27,1.92
13.953,-1.13,0.67,-1.00,1.66
13.963,-1.11,0.45,-0.78,1.43
13.973,-1.05,0.26,-0.54,1.21
13.983,-1.00,0.06,-0.34,1.06
13.993,-1.02,-0.05,-0.12,1.03
14.003,-1.08,-0.07,0.12,1.09
14.013,-1.14,-0.02,0.34,1.19
14.023,-1.12,-0.03,0.43,1.20
14.033,-1.12,-0.04,0.49,1.22
14.043,-1.09,-0.09,0.56,1.23
14.053,-1.02,-0.21,0.60,1.20
14.063,-0.94,-0.36,0.61,1.18
14.073,-0.89,-0.47,0.67,1.21
14.083,-0.89,-0.55,0.84,1.34
14.093,-0.87,-0.56,0.91,1.38
14.103,-0.95,-0.46,0.88,1.37
14.113,-1.15,-0.34,0.85,1.47
14.123,-1.43,-0.18,0.80,1.65
14.133,-1.76,0.03,0.74,1.91
14.143,-2.12,0.15,0.68,2.23
14.153,-2.38,0.23,0.65,2.48
14.163,-2.39,0.22,0.66,2.49
14.173,-2.26,0.11,0.73,2.38
14.183,-2.02,-0.06,0.78,2.16
14.193,-1.81,-0.33,0.80,2.00
14.203,-1.61,-0.57,0.84,1.90
14.213,-1.39,-0.70,0.86,1.78
14.223,-1.14,-0.77,0.89,1.64
14.233,-0.95,-0.75,0.99,1.56
14.243,-0.85,-0.63,1.11,1.53
14.253,-0.79,-0.45,1.20,1.50
14.263,-0.68,-0.17,1.27,1.46
14.273,-0.63,0.02,1.33,1.47
14.283,-0.66,0.09,1.38,1.53
14.293,-0.64,0.17,1.37,1.52
14.304,-0.43,0.24,1.33,1.42
14.313,-0.08,0.16,1.33,1.34
14.323,0.21,-0.05,1.31,1.33
14.333,0.49,-0.26,1.28,1.39
14.344,0.77,-0.41,1.22,1.49
14.353,0.94,-0.52,1.27,1.66
14.363,0.94,-0.56,1.42,1.80
14.374,0.98,-0.56,1.50,1.88
14.383,1.16,-0.48,1.54,1.99
14.393,1.41,-0.44,1.55,2.14
14.404,1.44,-0.58,1.49,2.15
14.414,1.32,-0.90,1.54,2.22
14.424,1.37,-1.03,1.76,2.46
14.434,1.73,-0.99,1.81,2.69
14.444,2.29,-0.99,1.35,2.83
14.454,3.31,-1.00,0.82,3.55
14.464,4.67,-0.98,0.54,4.81
14.474,6.01,-0.99,0.22,6.09
14.484,6.99,-1.03,-0.33,7.07
14.494,7.42,-1.10,-0.86,7.55
14.504,7.27,-1.11,-1.29,7.46
14.514,6.23,-0.80,-1.17,6.39
14.524,4.64,-0.17,-0.36,4.66
14.534,3.16,0.42,0.36,3.20
14.544,1.99,0.57,0.34,2.09
14.554,1.03,0.44,-0.43,1.21
14.564,0.40,0.34,-1.27,1.37
14.574,-0.11,0.36,-1.94,1.98
14.584,-0.71,0.41,-2.60,2.72
14.594,-1.34,0.47,-2.93,3.26
14.604,-1.82,0.50,-2.95,3.50
14.614,-2.14,0.44,-2.82,3.57
14.624,-2.40,0.39,-2.50,3.49
14.634,-2.61,0.42,-2.08,3.36
14.644,-2.58,0.48,-1.67,3.11
14.654,-2.33,0.59,-1.37,2.77
14.664,-1.94,0.77,-1.10,2.37
14.674,-1.57,1.01,-0.79,2.03
14.684,-1.30,1.17,-0.47,1.81
14.694,-1.13,1.17,-0.32,1.66
14.704,-1.04,0.99,-0.21,1.46
14.714,-0.96,0.73,-0.16,1.22
14.724,-0.82,0.42,-0.25,0.95
14.734,-0.72,0.14,-0.39,0.83
14.744,-0.64,-0.05,-0.42,0.77
14.754,-0.63,-0.22,-0.39,0.77
14.764,-0.62,-0.38,-0.33,0.80
14.774,-0.69,-0.52,-0.24,0.89
14.784,-0.69,-0.59,-0.14,0.92
14.794,-0.59,-0.54,-0.15,0.81
14.804,-0.48,-0.40,-0.17,0.65
14.814,-0.39,-0.32,-0.11,0.52
14.824,-0.43,-0.32,-0.07,0.54
14.834,-0.59,-0.27,-0.09,0.65
14.844,-0.83,-0.16,-0.09,0.85
14.854,-1.21,-0.08,0.01,1.21
14.864,-1.52,-0.05,0.13,1.52
14.874,-1.65,-0.04,0.28,1.68
14.884,-1.59,-0.03,0.35,1.62
14.894,-1.40,0.09,0.37,1.45
14.904,-1.21,0.26,0.31,1.27
14.914,-1.09,0.37,0.17,1.17
14.924,-1.12,0.48,0.03,1.22
14.934,-1.19,0.54,-0.03,1.31
14.944,-1.24,0.49,-0.05,1.33
14.954,-1.29,0.40,0.00,1.35
14.964,-1.36,0.32,0.14,1.41
14.974,-1.48,0.25,0.24,1.52
14.984,-1.61,0.20,0.28,1.65
14.994,-1.81,0.13,0.29,1.83
15.004,-2.01,0.03,0.24,2.03
15.014,-2.22,-0.02,0.24,2.23
15.024,-2.33,-0.02,0.26,2.34
15.034,-2.30,-0.00,0.29,2.32
15.044,-2.20,0.03,0.29,2.22
15.054,-2.09,0.09,0.28,2.11
15.064,-1.97,0.18,0.33,2.01
15.074,-1.75,0.34,0.48,1.85
15.084,-1.48,0.52,0.62,1.68
15.094,-1.17,0.69,0.82,1.59
15.104,-0.87,0.75,1.08,1.58
15.114,-0.59,0.72,1.35,1.64
15.124,-0.30,0.67,1.77,1.92
15.134,-0.06,0.55,2.21,2.28
15.144,0.09,0.40,2.47,2.50
15.154,0.27,0.20,2.49,2.51
15.164,0.73,-0.08,2.40,2.51
15.174,1.40,-0.29,2.11,2.55
15.184,2.07,-0.36,1.87,2.82
15.194,2.62,-0.37,1.81,3.20
15.204,2.78,-0.38,1.82,3.34
15.214,2.54,-0.39,1.87,3.18
15.224,2.19,-0.16,1.84,2.87
15.234,2.32,0.19,1.38,2.70
15.244,2.75,0.26,0.63,2.83
15.254,3.59,0.39,0.00,3.61
15.264,4.63,0.80,-0.18,4.70
15.274,5.00,1.10,-0.12,5.12
15.284,4.74,1.25,-0.09,4.90
15.294,4.05,1.15,0.08,4.21
15.304,2.88,0.75,0.11,2.98
15.314,1.56,0.24,0.16,1.59
15.324,0.65,-0.08,0.18,0.68
15.334,-0.06,-0.28,-0.20,0.35
15.344,-0.60,-0.50,-0.79,1.11
15.354,-0.88,-0.57,-1.44,1.78
15.364,-0.95,-0.49,-2.02,2.29
15.374,-0.76,-0.33,-2.50,2.63
15.384,-0.57,-0.13,-2.81,2.87
15.394,-0.44,-0.05,-2.95,2.98
15.404,-0.53,-0.16,-2.95,3.00
15.415,-0.66,-0.45,-2.83,2.94
15.424,-0.69,-0.82,-2.74,2.95
15.435,-0.60,-1.20,-2.70,3.02
15.445,-0.49,-1.47,-2.57,3.00
15.454,-0.50,-1.52,-2.21,2.73
15.464,-0.71,-1.42,-1.78,2.38
15.475,-0.96,-1.21,-1.40,2.09
15.485,-1.24,-0.99,-1.14,1.95
15.494,-1.40,-0.84,-0.99,1.91
15.504,-1.39,-0.73,-0.89,1.80
15.514,-1.32,-0.63,-0.88,1.70
15.525,-1.24,-0.54,-1.00,1.68
15.535,-1.07,-0.44,-1.14,1.62
15.545,-0.95,-0.26,-1.17,1.53
15.555,-0.92,-0.12,-1.18,1.50
15.565,-0.89,-0.01,-1.23,1.52
15.574,-0.84,0.09,-1.21,1.48
15.585,-0.75,0.17,-1.03,1.29
15.595,-0.64,0.14,-0.81,1.04
15.605,-0.57,0.07,-0.63,0.85
15.615,-0.59,-0.01,-0.44,0.74
15.625,-0.74,-0.09,-0.27,0.79
15.635,-0.96,-0.15,-0.23,1.00
15.645,-1.04,-0.19,-0.25,1.09
15.655,-0.97,-0.27,-0.24,1.03
15.665,-0.98,-0.27,-0.12,1.02
15.675,-1.05,-0.26,0.07,1.08
15.685,-1.10,-0.26,0.23,1.15
15.695,-1.13,-0.20,0.44,1.23
15.705,-1.17,-0.12,0.72,1.38
15.715,-1.19,-0.05,0.91,1.50
15.725,-1.15,0.02,0.93,1.48
15.735,-1.00,0.09,0.94,1.38
15.745,-0.91,0.18,0.89,1.29
15.755,-0.94,0.31,0.88,1.32
15.765,-0.95,0.45,0.94,1.41
15.775,-0.94,0.59,0.89,1.42
15.785,-0.96,0.62,0.79,1.39
15.795,-1.03,0.51,0.72,1.36
15.805,-1.00,0.38,0.61,1.24
15.815,-0.90,0.29,0.48,1.06
15.825,-1.02,0.19,0.45,1.13
15.835,-1.19,0.07,0.55,1.31
15.845,-1.21,-0.01,0.75,1.42
15.855,-1.27,-0.13,0.96,1.60
15.865,-1.28,-0.18,1.09,1.70
15.875,-1.27,-0.20,1.16,1.74
15.885,-1.36,-0.29,1.15,1.80
15.895,-1.40,-0.37,1.05,1.79
15.905,-1.42,-0.49,1.00,1.80
15.915,-1.31,-0.62,1.04,1.79
15.925,-1.15,-0.75,1.06,1.73
15.935,-0.94,-0.75,1.14,1.66
15.945,-0.69,-0.66,1.24,1.56
15.955,-0.45,-0.53,1.25,1.43
15.965,-0.35,-0.29,1.20,1.28
15.975,-0.26,-0.03,1.20,1.22
15.985,-0.04,0.15,1.25,1.26
15.995,0.17,0.20,1.35,1.37
16.005,0.37,0.19,1.49,1.55
16.015,0.55,0.15,1.66,1.76
16.025,0.56,0.09,1.82,1.91
16.035,0.51,-0.05,1.87,1.94
16.045,0.53,-0.24,1.92,2.01
16.055,0.68,-0.42,1.84,2.01
16.065,1.05,-0.62,1.66,2.06
16.075,1.58,-0.80,1.47,2.30
16.085,2.30,-0.94,1.33,2.82
16.095,3.03,-1.04,1.15,3.41
16.105,3.42,-1.02,0.80,3.66
16.115,3.28,-1.18,0.76,3.57
16.125,3.05,-1.14,0.99,3.41
16.135,3.14,-0.89,1.16,3.46
16.145,3.60,-0.81,0.85,3.79
16.155,4.42,-0.63,0.46,4.49
16.165,4.88,-0.32,0.13,4.89
16.175,4.68,-0.15,-0.32,4.69
16.185,4.37,-0.03,-0.58,4.41
16.195,4.32,-0.01,-0.32,4.33
16.205,4.12,-0.23,-0.00,4.13
16.215,3.30,-0.61,0.07,3.35
16.225,2.10,-0.91,-0.07,2.29
16.235,1.07,-1.07,-0.49,1.59
16.245,0.56,-0.95,-1.17,1.61
16.255,0.39,-0.60,-1.80,1.94
16.265,0.23,-0.22,-2.37,2.39
16.275,-0.09,0.21,-2.62,2.63
16.285,-0.45,0.55,-2.73,2.82
16.296,-0.75,0.77,-2.94,3.13
16.305,-0.96,0.93,-3.04,3.32
16.316,-1.24,1.04,-2.78,3.22
16.326,-1.32,1.16,-2.28,2.87
16.335,-1.31,1.15,-1.91,2.58
16.345,-1.30,1.06,-1.60,2.32
16.355,-1.15,0.91,-1.40,2.03
16.365,-0.92,0.77,-1.20,1.70
16.375,-0.69,0.53,-1.02,1.34
16.385,-0.66,0.33,-0.74,1.05
16.395,-0.71,0.21,-0.43,0.85
16.405,-0.83,0.11,-0.27,0.88
16.415,-1.10,-0.04,-0.21,1.12
16.425,-1.42,-0.16,-0.11,1.43
16.435,-1.71,-0.18,-0.06,1.72
16.445,-1.91,-0.18,-0.12,1.92
16.455,-2.02,-0.17,-0.20,2.04
16.466,-2.08,-0.09,-0.22,2.09
16.475,-2.04,0.00,-0.26,2.05
16.485,-1.90,0.12,-0.26,1.92
16.495,-1.65,0.21,-0.23,1.68
16.505,-1.43,0.24,-0.15,1.46
16.515,-1.28,0.21,-0.05,1.30
16.526,-1.17,0.19,-0.02,1.19
16.535,-1.10,0.23,-0.01,1.12
16.546,-1.08,0.34,-0.03,1.14
16.555,-1.11,0.46,-0.13,1.21
16.565,-1.24,0.57,-0.15,1.37
16.576,-1.33,0.62,-0.08,1.47
16.586,-1.36,0.55,0.01,1.47
16.596,-1.45,0.40,0.05,1.51
16.606,-1.61,0.27,0.05,1.63
16.616,-1.65,0.15,0.08,1.66
16.626,-1.70,0.02,0.10,1.70
16.635,-1.80,-0.10,0.08,1.81
16.646,-1.86,-0.19,-0.00,1.87
16.656,-1.84,-0.24,0.02,1.85
16.666,-1.73,-0.26,0.09,1.75
16.676,-1.62,-0.22,0.14,1.64
16.686,-1.48,-0.15,0.14,1.50
16.696,-1.27,-0.03,0.12,1.27
16.706,-1.03,0.11,0.01,1.03
16.716,-0.89,0.22,0.00,0.91
16.726,-0.87,0.35,0.20,0.96
16.736,-0.88,0.57,0.34,1.10
16.746,-0.84,0.72,0.45,1.20
16.756,-0.81,0.70,0.61,1.23
16.766,-0.85,0.63,0.71,1.27
16.776,-0.84,0.54,0.66,1.20
16.786,-0.78,0.50,0.64,1.12
16.796,-0.82,0.41,0.81,1.22
16.806,-0.88,0.35,1.07,1.42
16.816,-0.79,0.34,1.41,1.65
16.826,-0.60,0.37,1.77,1.91
16.836,-0.38,0.48,1.96,2.05
16.846,-0.06,0.50,1.96,2.02
16.856,0.25,0.43,1.86,1.93
16.866,0.49,0.24,1.69,1.78
16.876,0.74,-0.04,1.53,1.70
16.886,1.16,-0.27,1.38,1.83
16.896,1.57,-0.45,1.26,2.06
16.906,1.89,-0.51,1.26,2.33
16.916,2.21,-0.52,1.44,2.69
16.926,2.21,-0.55,1.60,2.78
16.936,2.00,-0.30,1.84,2.73
16.946,2.05,-0.13,1.85,2.76
16.956,2.34,-0.09,1.46,2.76
16.966,3.03,0.13,1.10,3.23
16.976,4.09,0.36,0.67,4.16
16.986,4.91,0.41,0.18,4.93
16.996,5.18,0.56,-0.03,5.21
17.006,5.04,0.77,0.22,5.10
17.016,4.56,0.88,0.54,4.68
17.026,3.86,0.75,0.78,4.01
17.036,3.08,0.35,0.88,3.22
17.046,2.29,-0.12,0.70,2.40
17.056,1.39,-0.47,0.27,1.49
17.066,0.61,-0.62,-0.35,0.94
17.076,-0.01,-0.69,-1.21,1.39
17.086,-0.38,-0.70,-2.03,2.18
17.096,-0.59,-0.62,-2.75,2.88
17.106,-0.77,-0.42,-3.19,3.31
17.116,-0.85,-0.16,-3.40,3.51
17.126,-0.84,0.07,-3.38,3.48
17.136,-0.82,0.21,-3.14,3.26
17.146,-0.81,0.17,-2.84,2.96
17.156,-0.84,-0.09,-2.52,2.66
17.166,-0.89,-0.46,-2.19,2.40
17.176,-0.95,-0.85,-1.95,2.33
17.186,-1.05,-1.13,-1.76,2.34
17.196,-1.25,-1.28,-1.41,2.28
17.206,-1.41,-1.26,-1.03,2.15
17.216,-1.41,-1.13,-0.77,1.97
17.226,-1.50,-0.92,-0.48,1.82
17.236,-1.64,-0.67,-0.19,1.78
17.246,-1.73,-0.37,-0.22,1.78
17.256,-1.65,0.01,-0.48,1.72
17.266,-1.66,0.33,-0.66,1.81
17.276,-1.72,0.51,-0.74,1.94
17.286,-1.85,0.52,-0.78,2.07
17.296,-1.90,0.53,-0.73,2.10
17.306,-1.79,0.44,-0.63,1.95
17.316,-1.63,0.30,-0.54,1.74
17.326,-1.43,0.17,-0.43,1.50
17.336,-1.27,0.05,-0.35,1.32
17.346,-1.09,-0.01,-0.24,1.12
17.356,-0.99,-0.10,-0.13,1.00
17.366,-0.95,-0.22,-0.04,0.97
17.376,-0.84,-0.27,0.12,0.89
17.386,-0.74,-0.28,0.40,0.89
17.396,-0.77,-0.26,0.60,1.01
17.406,-0.84,-0.27,0.73,1.15
17.416,-0.87,-0.26,0.83,1.23
17.426,-0.97,-0.20,0.91,1.34
17.436,-1.04,-0.14,0.89,1.37
17.446,-1.04,-0.03,0.84,1.34
17.456,-1.04,0.08,0.84,1.34
17.466,-1.11,0.14,0.95,1.46
17.476,-1.20,0.21,1.07,1.62
17.486,-1.26,0.25,1.08,1.68
17.496,-1.34,0.18,1.03,1.70
17.506,-1.43,0.09,0.99,1.74
17.516,-1.49,-0.03,0.98,1.79
17.526,-1.59,-0.22,0.97,1.88
17.536,-1.60,-0.40,0.90,1.88
17.546,-1.54,-0.53,0.88,1.85
17.556,-1.47,-0.62,0.90,1.83
17.566,-1.35,-0.66,0.92,1.76
17.576,-1.29,-0.65,0.99,1.75
17.586,-1.23,-0.54,1.05,1.70
17.596,-1.14,-0.47,1.09,1.64
17.607,-1.09,-0.47,1.14,1.64
17.616,-1.08,-0.50,1.29,1.76
17.627,-1.12,-0.50,1.42,1.87
17.637,-1.17,-0.49,1.42,1.91
17.647,-1.15,-0.45,1.30,1.79
17.657,-1.05,-0.43,1.13,1.60
17.667,-0.97,-0.39,1.02,1.46
17.676,-0.75,-0.33,0.87,1.20
17.687,-0.29,-0.27,0.60,0.72
17.697,0.30,-0.26,0.39,0.56
17.707,0.77,-0.24,0.41,0.91
17.716,1.06,-0.19,0.51,1.19
17.727,1.19,-0.03,0.69,1.37
17.737,1.15,0.20,0.99,1.53
17.747,1.10,0.42,1.35,1.80
17.757,1.15,0.58,1.64,2.09
17.767,1.32,0.62,1.60,2.16
17.777,1.43,0.39,1.54,2.14
17.787,1.68,0.16,1.60,2.32
17.797,2.07,0.05,1.42,2.51
17.807,2.43,-0.16,0.85,2.58
17.817,3.07,-0.36,0.30,3.10
17.827,4.05,-0.54,0.15,4.09
17.837,4.91,-0.77,0.15,4.98
17.847,5.33,-1.13,0.07,5.45
17.857,5.45,-1.66,0.15,5.70
17.867,5.39,-2.19,0.20,5.82
17.877,5.10,-2.49,0.16,5.68
17.887,4.52,-2.43,0.23,5.14
17.897,3.65,-2.00,0.35,4.17
17.907,2.63,-1.38,0.37,2.99
17.917,1.82,-0.77,0.19,1.99
17.927,1.25,-0.46,-0.39,1.39
17.937,0.84,-0.33,-1.18,1.49
17.947,0.53,-0.20,-2.03,2.10
17.957,0.27,-0.02,-2.64,2.65
17.967,-0.08,0.24,-2.90,2.91
17.977,-0.47,0.57,-2.91,3.00
17.987,-0.95,0.85,-2.79,3.07
17.997,-1.13,1.00,-2.69,3.08
18.007,-1.41,0.92,-2.82,3.28
18.017,-1.73,0.83,-2.69,3.31
18.027,-1.81,0.81,-2.49,3.19
18.037,-1.79,0.74,-2.33,3.03
18.047,-1.65,0.67,-2.16,2.80
18.057,-1.56,0.69,-1.87,2.53
18.067,-1.45,0.74,-1.47,2.20
18.077,-1.31,0.77,-1.13,1.89
18.087,-1.28,0.69,-0.86,1.69
18.097,-1.27,0.59,-0.64,1.53
18.107,-1.26,0.46,-0.55,1.45
18.117,-1.18,0.35,-0.56,1.35
18.127,-1.13,0.28,-0.60,1.31
18.137,-1.23,0.22,-0.54,1.36
18.147,-1.32,0.19,-0.47,1.42
18.157,-1.41,0.21,-0.44,1.49
18.167,-1.41,0.13,-0.41,1.47
18.177,-1.43,-0.01,-0.29,1.46
18.187,-1.40,-0.16,-0.23,1.43
18.197,-1.23,-0.30,-0.30,1.30
18.207,-1.12,-0.41,-0.40,1.25
18.217,-1.08,-0.45,-0.43,1.24
18.227,-1.04,-0.44,-0.38,1.19
18.237,-0.97,-0.30,-0.24,1.05
18.247,-0.84,-0.09,-0.05,0.85
18.257,-0.71,0.07,0.12,0.72
18.267,-0.73,0.21,0.21,0.79
18.277,-0.74,0.30,0.32,0.86
18.287,-0.81,0.27,0.43,0.96
18.297,-0.93,0.21,0.53,1.09
18.307,-1.08,0.13,0.63,1.26
18.317,-1.27,-0.02,0.65,1.42
18.327,-1.40,-0.18,0.54,1.51
18.337,-1.39,-0.28,0.40,1.47
18.347,-1.38,-0.33,0.29,1.45
18.357,-1.44,-0.31,0.20,1.49
18.367,-1.54,-0.22,0.18,1.56
18.377,-1.65,-0.14,0.18,1.66
18.387,-1.67,-0.02,0.17,1.68
18.397,-1.60,0.03,0.13,1.60
18.407,-1.51,0.07,0.16,1.52
18.417,-1.41,0.16,0.22,1.44
18.427,-1.40,0.23,0.30,1.46
18.437,-1.47,0.36,0.40,1.56
18.447,-1.53,0.51,0.51,1.69
18.457,-1.52,0.60,0.54,1.72
18.467,-1.45,0.69,0.63,1.72
18.477,-1.29,0.73,0.76,1.66
18.487,-1.17,0.70,0.78,1.58
18.497,-1.08,0.70,0.83,1.53
18.507,-0.94,0.70,0.88,1.46
18.517,-0.87,0.65,0.84,1.38
18.527,-0.83,0.60,0.86,1.34
18.537,-0.79,0.53,0.90,1.31
18.547,-0.75,0.46,0.95,1.29
18.557,-0.69,0.36,1.01,1.28
18.567,-0.65,0.29,1.07,1.28
18.577,-0.47,0.24,1.21,1.33
18.587,-0.16,0.14,1.22,1.23
18.597,0.14,0.01,1.18,1.19
18.607,0.49,-0.03,1.23,1.33
18.617,0.84,-0.03,1.23,1.49
18.627,1.13,0.03,1.23,1.67
18.637,1.24,0.11,1.48,1.93
18.647,1.27,0.17,1.80,2.20
18.657,1.26,0.21,1.98,2.36
18.667,1.23,0.26,2.04,2.40
18.677,1.25,0.25,1.96,2.34
18.688,1.21,0.24,1.53,1.97
18.697,1.28,0.40,0.98,1.66
18.707,1.80,0.46,0.47,1.91
18.717,2.66,0.31,0.30,2.70
18.728,3.23,0.15,0.47,3.27
18.737,3.79,-0.11,0.61,3.84
18.748,4.37,-0.35,0.51,4.41
18.758,4.74,-0.39,0.32,4.77
18.768,4.81,-0.26,0.30,4.83
18.778,4.67,-0.03,0.23,4.68
18.788,4.26,0.24,0.23,4.27
18.798,3.74,0.60,0.44,3.82
18.808,3.15,0.75,0.48,3.28
18.817,2.45,0.73,0.27,2.57
18.828,1.71,0.66,0.10,1.83
18.838,0.85,0.51,-0.24,1.02
18.848,0.04,0.28,-0.83,0.87
18.858,-0.62,0.07,-1.51,1.64
18.868,-1.07,-0.11,-2.17,2.42
18.878,-1.34,-0.29,-2.80,3.12
18.888,-1.45,-0.42,-3.38,3.70
18.898,-1.38,-0.45,-3.68,3.96
18.908,-1.27,-0.43,-3.62,3.86
18.918,-1.26,-0.45,-3.28,3.55
18.928,-1.20,-0.62,-2.86,3.16
18.938,-1.10,-0.90,-2.37,2.76
18.948,-1.04,-1.20,-1.96,2.52
18.958,-1.00,-1.45,-1.62,2.39
18.968,-0.94,-1.62,-1.28,2.26
18.978,-0.95,-1.62,-0.95,2.11
18.988,-1.01,-1.46,-0.65,1.89
18.998,-1.01,-1.19,-0.38,1.61
19.008,-1.05,-0.86,-0.15,1.37
19.018,-1.17,-0.56,0.01,1.30
19.028,-1.26,-0.37,-0.03,1.31
19.038,-1.18,-0.22,-0.24,1.22
19.048,-0.96,-0.08,-0.49,1.08
19.058,-0.78,0.09,-0.65,1.01
19.068,-0.66,0.24,-0.68,0.98
19.078,-0.58,0.34,-0.72,0.98
19.088,-0.62,0.41,-0.72,1.03
19.098,-0.76,0.39,-0.52,1.00
19.108,-0.91,0.27,-0.18,0.97
19.118,-0.97,0.11,0.01,0.98
19.128,-1.04,0.03,0.16,1.05
19.138,-1.09,0.06,0.40,1.16
19.148,-1.12,0.10,0.59,1.27
19.158,-1.17,0.20,0.72,1.39
19.168,-1.19,0.27,0.83,1.48
19.178,-1.20,0.29,0.86,1.50
19.188,-1.18,0.23,0.85,1.47
19.198,-1.15,0.15,0.84,1.43
19.208,-1.13,0.06,0.79,1.38
19.218,-1.13,0.03,0.69,1.33
19.228,-1.11,0.05,0.60,1.26
19.238,-1.00,0.09,0.49,1.12
19.248,-0.95,0.08,0.42,1.04
19.258,-1.01,0.03,0.37,1.08
19.268,-1.17,-0.06,0.37,1.23
19.278,-1.40,-0.14,0.39,1.46
19.288,-1.63,-0.20,0.44,1.70
19.298,-1.80,-0.23,0.45,1.87
19.308,-1.83,-0.21,0.39,1.88
19.318,-1.70,-0.20,0.45,1.77
19.328,-1.58,-0.28,0.59,1.71
19.338,-1.49,-0.38,0.81,1.73
19.348,-1.41,-0.47,1.00,1.79
19.358,-1.39,-0.66,1.11,1.90
19.368,-1.34,-0.80,1.16,1.94
19.378,-1.24,-0.84,1.18,1.90
19.388,-1.16,-0.84,1.14,1.83
19.398,-1.01,-0.75,1.04,1.63
19.408,-0.89,-0.61,0.87,1.39
19.418,-0.83,-0.45,0.74,1.20
19.428,-0.80,-0.34,0.60,1.06
19.438,-0.64,-0.26,0.54,0.88
19.448,-0.40,-0.20,0.55,0.71
19.458,-0.17,-0.23,0.64,0.70
19.468,0.12,-0.27,0.78,0.83
19.478,0.23,-0.30,0.98,1.05
19.488,0.26,-0.25,1.21,1.26
19.498,0.38,-0.18,1.49,1.55
19.508,0.74,-0.19,1.69,1.85
19.518,0.91,-0.23,1.73,1.97
19.528,0.80,-0.29,1.70,1.90
19.538,0.73,-0.26,1.68,1.85
19.548,1.15,-0.21,1.69,2.05
19.558,1.53,-0.40,1.47,2.16
19.568,1.67,-0.62,1.07,2.08
19.578,1.77,-0.75,0.72,2.05
19.588,1.82,-0.80,0.44,2.04
19.598,2.03,-0.86,0.12,2.21
19.608,2.69,-0.98,-0.20,2.87
19.618,3.56,-1.05,-0.42,3.73
19.628,4.28,-1.00,-0.43,4.42
19.639,4.73,-0.94,-0.34,4.84
19.648,4.79,-1.01,-0.35,4.91
19.658,4.47,-0.93,-0.21,4.57
19.668,4.07,-0.63,0.30,4.13
19.678,3.63,-0.22,0.79,3.72
19.688,3.17,0.00,0.96,3.31
19.698,2.83,-0.15,0.70,2.92
19.708,2.45,-0.51,-0.03,2.50
19.718,2.00,-0.82,-0.97,2.37
19.728,1.41,-0.99,-1.84,2.52
19.738,0.79,-0.89,-2.33,2.62
19.748,0.17,-0.54,-2.49,2.56
19.759,-0.43,-0.06,-2.53,2.57
19.769,-0.83,0.32,-2.52,2.67
19.778,-1.06,0.55,-2.55,2.82
19.788,-1.22,0.67,-2.58,2.93
19.798,-1.37,0.66,-2.48,2.90
19.809,-1.51,0.53,-2.27,2.78
19.818,-1.61,0.43,-1.94,2.56
19.829,-1.64,0.39,-1.64,2.35
19.839,-1.51,0.42,-1.47,2.15
19.849,-1.32,0.51,-1.47,2.04
19.858,-1.18,0.66,-1.59,2.09
19.869,-1.10,0.72,-1.75,2.19
19.878,-1.05,0.63,-1.78,2.16
19.889,-1.07,0.54,-1.65,2.04
19.899,-1.09,0.47,-1.48,1.90
19.909,-1.04,0.42,-1.29,1.71
19.919,-1.00,0.43,-1.11,1.55
19.929,-1.09,0.35,-1.04,1.55
19.939,-1.23,0.19,-0.97,1.58
19.949,-1.32,-0.01,-0.89,1.59
19.959,-1.38,-0.16,-0.77,1.59
19.969,-1.42,-0.31,-0.75,1.64
19.979,-1.49,-0.35,-0.71,1.69
19.989,-1.51,-0.27,-0.66,1.66
19.999,-1.44,-0.12,-0.76,1.63
20.009,-1.29,0.00,-0.83,1.53
20.019,-1.14,0.03,-0.75,1.36
20.029,-1.01,-0.02,-0.66,1.21
20.039,-0.89,-0.05,-0.63,1.09
20.049,-0.77,-0.08,-0.61,0.98
20.059,-0.70,-0.11,-0.60,0.93
20.069,-0.66,-0.09,-0.57,0.88
20.079,-0.52,-0.06,-0.48,0.72
20.089,-0.44,-0.06,-0.39,0.60
20.099,-0.43,-0.07,-0.35,0.56
20.109,-0.39,-0.10,-0.31,0.52
20.119,-0.32,-0.09,-0.35,0.49
20.129,-0.22,-0.02,-0.37,0.43
20.139,-0.18,0.08,-0.38,0.42
20.149,-0.17,0.21,-0.39,0.48
20.159,-0.17,0.32,-0.40,0.54
20.169,-0.24,0.39,-0.35,0.57
20.179,-0.31,0.35,-0.20,0.51
20.189,-0.48,0.30,-0.16,0.59
20.199,-0.77,0.27,-0.12,0.82
20.209,-1.04,0.26,0.01,1.07
20.219,-1.17,0.31,0.13,1.22
20.229,-1.26,0.36,0.19,1.33
20.239,-1.35,0.33,0.29,1.42
20.249,-1.47,0.33,0.32,1.55
20.259,-1.56,0.32,0.16,1.60
20.269,-1.51,0.31,0.08,1.55
20.279,-1.36,0.34,0.00,1.41
20.289,-1.21,0.35,-0.15,1.26
20.299,-1.07,0.36,-0.25,1.16
20.309,-0.93,0.41,-0.32,1.06
20.319,-0.75,0.38,-0.29,0.88
20.329,-0.63,0.24,-0.30,0.74
20.339,-0.57,0.07,-0.41,0.71
20.349,-0.61,-0.08,-0.47,0.77
20.359,-0.70,-0.11,-0.46,0.85
20.369,-0.77,-0.07,-0.44,0.88
20.379,-0.75,-0.03,-0.36,0.83
20.389,-0.69,0.03,-0.23,0.73
20.399,-0.62,0.11,-0.11,0.64
20.409,-0.47,0.19,-0.04,0.51
20.419,-0.20,0.23,-0.26,0.40
20.429,0.16,0.25,-0.53,0.61
20.439,0.37,0.28,-0.67,0.82
20.449,0.38,0.32,-0.69,0.85
20.459,0.27,0.34,-0.67,0.80
20.469,0.24,0.31,-0.59,0.71
20.479,0.21,0.19,-0.40,0.49
20.490,0.08,-0.01,-0.30,0.31
20.499,-0.27,-0.09,-0.27,0.39
20.509,-0.64,-0.20,-0.15,0.68
20.519,-0.80,-0.34,0.02,0.87
20.529,-0.86,-0.36,0.15,0.94
20.539,-0.76,-0.32,0.18,0.85
20.549,-0.54,-0.22,0.11,0.59
20.559,-0.25,-0.18,-0.02,0.31
20.569,-0.05,-0.12,-0.10,0.16
20.579,0.13,-0.08,-0.16,0.22
20.589,0.25,-0.06,-0.24,0.35
20.599,0.32,0.03,-0.25,0.40
20.609,0.28,0.12,-0.25,0.39
20.619,0.23,0.14,-0.16,0.31
20.629,0.10,0.15,-0.06,0.19
20.639,-0.01,0.14,0.01,0.14
20.649,-0.11,0.09,0.03,0.14
20.659,-0.19,-0.02,0.09,0.21
20.669,-0.24,-0.13,0.11,0.30
20.679,-0.28,-0.30,0.10,0.42
20.689,-0.27,-0.48,0.06,0.55
20.699,-0.30,-0.63,-0.01,0.70
20.709,-0.38,-0.71,-0.01,0.81
20.719,-0.42,-0.74,-0.03,0.85
20.729,-0.38,-0.72,-0.05,0.82
20.739,-0.34,-0.68,-0.09,0.77
20.749,-0.31,-0.66,-0.13,0.74
20.759,-0.30,-0.63,-0.17,0.72
20.769,-0.23,-0.44,-0.21,0.54
20.779,-0.20,-0.34,-0.22,0.45
20.789,-0.17,-0.27,-0.20,0.38
20.799,-0.22,-0.17,-0.17,0.32
20.809,-0.13,-0.14,-0.17,0.26
20.819,-0.01,-0.14,-0.22,0.26
20.829,0.12,-0.07,-0.22,0.26
20.839,0.26,-0.04,-0.17,0.31
20.849,0.34,0.01,-0.11,0.36
20.859,0.36,0.10,-0.09,0.39
20.869,0.18,0.16,-0.06,0.25
20.880,0.05,0.17,-0.04,0.18
20.890,-0.12,0.03,-0.07,0.15
20.899,-0.17,-0.09,-0.07,0.21
